"participant","trial_index","screenposition","stimulus","trialtype","classifyenc","rt","response","responsecorrect","responsecorrect_side","screenlocation","stimnum","acc","rtResidual","rtResidualC","rt_rec","trialno_rec","ratingConfidence","acc_rec","memoryHits.hc"
"13",1,"left","SHINEd_Bandage_Adhesive.jpg","incongruent","m",615.14864,"j","j","right","(148, 362)",107,1,589.364441890073,-55.6428398809553,"  814.22",287,4,1,1
"13",2,"left","SHINEd_Cauliflower.jpg","congruent","n",865.016124,"f","f","left","(148, 362)",291,1,839.453935160031,194.446653389003," 1763.78",220,3,1,1
"13",3,"right","SHINEd_Bag_Camera.jpg","congruent","m",772.85183,"j","j","right","(862, 362)",216,1,747.511650429989,102.504368658961," 2922.53",221,2,0,0
"13",4,"left","SHINEd_SpongeScrubbing.jpg","incongruent","m",NA,"miss","j","right","(148, 362)",139,0,NA,NA," 1157.63",97,3,1,1
"13",5,"left","SHINEd_dates_fresh.jpg","congruent","n",933.17053,"f","f","left","(148, 362)",319,1,908.274368969904,263.267087198876," 1590.78",410,4,1,1
"13",6,"right","SHINEd_blackberry.jpg","incongruent","n",673.688191,"j","f","left","(862, 362)",280,0,649.014039239861,4.00675746883308," 1327.23",296,2,1,NA
"13",7,"left","SHINEd_organutan.jpg","congruent","n",NA,"miss","f","left","(148, 362)",343,0,NA,NA," 1223.77",54,2,1,NA
"13",8,"left","SHINEd_PaperCutter.jpg","incongruent","m",944.484299,"j","j","right","(148, 362)",31,1,920.254165779776,275.246884008748," 1366.25",262,3,0,0
"13",9,"left","SHINEd_turkey.jpg","congruent","n",812.279964,"f","f","left","(148, 362)",391,1,788.271840049734,143.264558278706," 1383.99",419,3,1,1
"13",10,"left","SHINEd_Snowboard.jpg","incongruent","m",671.704808,"j","j","right","(148, 362)",23,1,647.918693319691,2.91141154866317," 2198.65",354,3,0,0
"13",11,"left","SHINEd_bear.jpg","congruent","n",546.846342,"f","f","left","(148, 362)",271,1,523.282236589649,-121.725045181379," 1718.84",56,3,1,1
"13",12,"left","SHINEd_Cable_AudioSplitter.jpg","incongruent","m",751.278176,"j","j","right","(148, 362)",91,1,727.936079859606,82.9287980885783,"  934.51",285,3,0,0
"13",13,"right","SHINEd_Boombox.jpg","congruent","m",650.308013,"j","j","right","(862, 362)",92,1,627.187926129564,-17.8193556414643," 1078.25",170,3,1,1
"13",14,"left","SHINEd_Playard.jpg","incongruent","m",765.751928,"f","j","right","(148, 362)",59,0,742.853850399521,97.8465686284933," 1846.47",414,3,0,0
"13",15,"left","SHINEd_Hedgehog.jpg","congruent","n",754.494923,"f","f","left","(148, 362)",243,1,731.818854669479,86.8115728984508," 1792.04",145,4,1,1
"13",16,"left","SHINEd_Car_Sedan.jpg","incongruent","m",654.107446,"j","j","right","(148, 362)",183,1,631.653386939436,-13.3538948315917," 2335.75",438,3,1,1
"13",17,"right","SHINEd_Bus_DoubleDecker.jpg","congruent","m",624.62673,"j","j","right","(862, 362)",184,1,602.394680209394,-42.6126015616342,"  838.04",390,3,1,1
"13",18,"right","SHINEd_alpaca_fo.jpg","incongruent","n",596.29009,"f","f","left","(862, 362)",400,1,574.280049479351,-70.7272322916767," 1100.41",372,3,1,1
"13",19,"left","SHINEd_Dress_Blue.jpg","incongruent","m",728.32779,"j","j","right","(148, 362)",3,1,706.539758749309,61.532476978281," 1100.04",367,4,1,1
"13",20,"right","SHINEd_Fan_Ceiling.jpg","congruent","m",NA,"miss","j","right","(862, 362)",48,0,NA,NA," 1669.97",362,3,1,1
"13",21,"left","SHINEd_Dresser.jpg","incongruent","m",655.211224,"j","j","right","(148, 362)",203,1,633.867211289224,-11.140070481804," 2150.94",258,4,1,1
"13",22,"left","SHINEd_WateringCan_PlasticDarkGreen.jpg","incongruent","m",634.065633,"j","j","right","(148, 362)",215,1,612.943629559182,-32.0636522118465," 1955.97",363,4,1,1
"13",23,"left","SHINEd_edamame.jpg","congruent","n",612.964279,"f","f","left","(148, 362)",303,1,592.064284829139,-52.942996941889," 1345.86",112,3,1,1
"13",24,"left","SHINEd_Binoculars.jpg","incongruent","m",674.912673,"j","j","right","(148, 362)",199,1,654.234688099097,9.22740632806857," 1036.83",434,4,1,1
"13",25,"right","SHINEd_Card_TwoSpade.jpg","congruent","m",NA,"miss","j","right","(862, 362)",88,0,NA,NA," 2275.98",218,3,1,1
"13",26,"left","SHINEd_Basket_Plastic.jpg","incongruent","m",616.577502,"j","j","right","(148, 362)",211,1,596.343535639012,-48.6637461320165,"  856.46",358,4,1,1
"13",27,"right","SHINEd_CinderBlock.jpg","congruent","m",771.791124,"j","j","right","(862, 362)",108,1,751.779166908969,106.771885137941,"  934.70",260,4,1,1
"13",28,"right","SHINEd_GasStation.jpg","congruent","m",NA,"miss","j","right","(862, 362)",168,0,NA,NA," 2684.46",375,2,0,0
"13",29,"left","SHINEd_Shoes_Pumps.jpg","incongruent","m",NA,"miss","j","right","(148, 362)",151,0,NA,NA," 2735.71",8,4,1,1
"13",30,"right","SHINEd_Oneholepunch.jpg","congruent","m",583.224594,"j","j","right","(862, 362)",76,1,563.878664718842,-81.1286170521863,"  853.74",400,4,1,1
"13",31,"left","SHINEd_whistle.jpg","incongruent","m",538.396544,"j","j","right","(148, 362)",79,1,519.272623988799,-125.734657782229," 2812.52",185,2,0,0
"13",32,"left","SHINEd_Box_Staples.jpg","incongruent","m",654.675036,"j","j","right","(148, 362)",67,1,635.773125258757,-9.23415651227132," 1144.30",154,4,1,1
"13",33,"left","SHINEd_Panda.jpg","congruent","n",561.124777,"f","f","left","(148, 362)",251,1,542.444875528714,-102.562406242314,"  996.48",397,4,1,1
"13",34,"right","SHINEd_raspberry.jpg","incongruent","n",668.860691,"f","f","left","(862, 362)",456,1,650.402798798672,5.39551702764372," 2165.92",99,3,1,1
"13",35,"right","SHINEd_Cologne.jpg","congruent","m",601.403752,"j","j","right","(862, 362)",116,1,583.167869068629,-61.8394127023987,"  739.73",391,3,1,1
"13",36,"right","SHINEd_tapir copy.jpg","incongruent","n",747.190723,"f","f","left","(862, 362)",408,1,729.176849338587,84.1695675675588,"  829.99",230,3,1,1
"13",37,"right","SHINEd_Hammer.jpg","congruent","m",790.502256,"j","j","right","(862, 362)",36,1,772.710391608544,127.703109837516," 1056.53",343,4,1,1
"13",38,"left","SHINEd_CapGraduation.jpg","incongruent","m",795.328012,"j","j","right","(148, 362)",187,1,777.758156878502,132.750875107474,"  905.97",94,4,1,1
"13",39,"left","SHINEd_Potato.jpg","congruent","n",406.120732,"j","f","left","(148, 362)",423,0,388.772886148459,-256.234395622569,"  877.39",401,4,1,1
"13",40,"right","SHINEd_blueberries.jpg","incongruent","n",649.723372,"f","f","left","(862, 362)",232,1,632.597535418417,-12.4097463526111," 2317.23",77,3,1,1
"13",41,"left","SHINEd_pistachios-.jpg","congruent","n",549.532929,"f","f","left","(148, 362)",411,1,532.629101688374,-112.378180082654,"  847.83",277,3,1,1
"13",42,"right","SHINEd_Pepper_Green.jpg","incongruent","n",625.195159,"f","f","left","(862, 362)",372,1,608.513340958332,-36.4939408126961,"  731.70",340,2,1,NA
"13",43,"left","SHINEd_sanddollar.jpg","congruent","n",677.266502,"f","f","left","(148, 362)",295,1,660.806693228289,15.7994114572614," 1304.39",194,4,1,1
"13",44,"left","SHINEd_Cup_Bathroom.jpg","incongruent","m",544.848365,"j","j","right","(148, 362)",51,1,528.610565498247,-116.396716272781," 1160.82",326,2,0,0
"13",45,"right","SHINEd_Ginger.jpg","incongruent","n",899.959757,"f","f","left","(862, 362)",236,1,883.943966768205,238.936684997176," 1848.27",365,4,1,1
"13",46,"right","SHINEd_DoubleBass.jpg","congruent","m",711.188185,"j","j","right","(862, 362)",8,1,695.394404038162,50.387122267134," 4235.69",210,3,1,1
"13",47,"right","SHINEd_Hazelnut.jpg","incongruent","n",714.923997,"f","f","left","(862, 362)",252,1,699.35222530812,54.3449435370915," 2044.57",278,4,1,1
"13",48,"right","SHINEd_ant.jpg","incongruent","n",822.135279,"j","f","left","(862, 362)",328,0,806.785516578077,161.778234807049,"  973.92",344,4,1,1
"13",49,"right","SHINEd_Golf_Club.jpg","congruent","m",NA,"miss","j","right","(862, 362)",132,0,NA,NA," 1352.76",180,3,0,0
"13",50,"right","SHINEd_Lobster.jpg","incongruent","n",616.218036,"f","f","left","(862, 362)",288,1,601.312292117992,-43.6949896530359,"  767.39",325,3,1,1
"13",51,"left","SHINEd_Shark_GreatWhite.jpg","congruent","n",667.094568,"f","f","left","(148, 362)",287,1,652.41083338795,7.40355161692161," 2093.29",18,4,1,1
"13",52,"right","SHINEd_HedgeShears.jpg","congruent","m",663.107957,"j","j","right","(862, 362)",28,1,648.646231657907,3.63894988687921,"  909.22",60,4,1,1
"13",53,"left","SHINEd_LightBulb_White.jpg","incongruent","m",865.636061,"j","j","right","(148, 362)",47,1,851.396344927865,206.389063156837," 1000.02",126,4,1,1
"13",54,"right","SHINEd_BookShelf.jpg","congruent","m",588.517589,"j","j","right","(862, 362)",204,1,574.499882197822,-70.5073995732058,"  942.54",379,2,1,NA
"13",55,"right","SHINEd_SpiderWeb.jpg","incongruent","n",744.195231,"f","f","left","(862, 362)",348,1,730.39953346778,85.3922516967518," 1959.79",23,4,1,1
"13",56,"right","SHINEd_Hand.jpg","incongruent","n",925.222302,"j","f","left","(862, 362)",284,0,911.648613737737,266.641331966709,"  939.50",387,2,1,NA
"13",57,"right","SHINEd_ScannerShoplifting.jpg","congruent","m",NA,"miss","j","right","(862, 362)",100,0,NA,NA," 4607.64",127,3,0,0
"13",58,"right","SHINEd_eggs.jpg","incongruent","n",594.733603,"f","f","left","(862, 362)",296,1,581.603933277652,-63.4033484933757," 1486.33",291,3,0,0
"13",59,"left","SHINEd_clementine.jpg","congruent","n",606.777961,"f","f","left","(148, 362)",359,1,593.87030054761,-51.1369812234182,"  922.86",81,4,1,1
"13",60,"right","SHINEd_beetle.jpg","incongruent","n",620.60158,"j","f","left","(862, 362)",356,0,607.915928817567,-37.0913529534607," 1911.27",302,4,1,1
"13",61,"right","SHINEd_Boar.jpg","incongruent","n",775.511093,"j","f","left","(862, 362)",264,0,763.047451087525,118.040169316497,"  818.61",389,3,1,1
"13",62,"left","SHINEd_Seal_animal.jpg","congruent","n",603.460951,"f","f","left","(148, 362)",379,1,591.219318357482,-53.7879634135456,"  933.82",396,2,1,NA
"13",63,"left","SHINEd_Toolbox_RedOpen.jpg","incongruent","m",663.098057,"j","j","right","(148, 362)",39,1,651.07843362744,6.07115185641194," 1214.95",39,4,1,1
"13",64,"right","SHINEd_Lighter_Yellow.jpg","congruent","m",691.145333,"j","j","right","(862, 362)",104,1,679.347718897397,34.3404371263695," 1781.08",392,3,1,1
"13",65,"left","SHINEd_MalletJudge.jpg","incongruent","m",832.072764,"j","j","right","(148, 362)",35,1,820.497159167355,175.489877396327," 1221.80",228,4,1,1
"13",66,"left","SHINEd_Iguana.jpg","congruent","n",611.711102,"f","f","left","(148, 362)",387,1,600.357506437313,-44.6497753337156,"  963.36",227,4,1,1
"13",67,"right","SHINEd_TigerWhite.jpg","incongruent","n",511.245591,"f","f","left","(862, 362)",440,1,500.11400470727,-144.893277063758," 2005.60",157,2,0,0
"13",68,"right","SHINEd_Sheep.jpg","incongruent","n",442.683219,"f","f","left","(862, 362)",300,1,431.773641977228,-213.2336397938," 1223.40",289,4,1,1
"13",69,"right","SHINEd_Dart.jpg","congruent","m",580.326408,"j","j","right","(862, 362)",20,1,569.638840247185,-75.3684415238429,"  927.21",79,4,1,1
"13",70,"right","SHINEd_Lettuce_GreenLeaf.jpg","incongruent","n",536.428971,"f","f","left","(862, 362)",248,1,525.963412517143,-119.043869253885," 3111.90",167,2,1,NA
"13",71,"right","SHINEd_ornament.jpg","congruent","m",940.15025,"j","j","right","(862, 362)",224,1,929.9067007871,284.899419016072," 2918.96",433,3,0,0
"13",72,"right","SHINEd_dove.jpg","incongruent","n",624.062992,"f","f","left","(862, 362)",308,1,614.041452057058,-30.9658297139704," 1062.78",313,3,1,1
"13",73,"right","SHINEd_Ball_Football.jpg","congruent","m",644.439517,"j","j","right","(862, 362)",128,1,634.639986327015,-10.3672954440129," 2959.02",208,4,1,1
"13",74,"left","SHINEd_Candleholder_LampShaped.jpg","incongruent","m",807.359786,"j","j","right","(148, 362)",111,1,797.782264596973,152.774982825945,"  807.01",85,4,1,1
"13",75,"left","SHINEd_Stingray.jpg","congruent","n",656.616981,"f","f","left","(148, 362)",315,1,647.26146886693,2.25418709590218," 2897.65",95,4,1,1
"13",76,"right","SHINEd_alarm.jpg","congruent","m",724.054216,"j","j","right","(862, 362)",96,1,714.920713136888,69.9134313658597," 1211.84",406,4,1,1
"13",77,"right","SHINEd_Dill.jpg","incongruent","n",681.652083,"f","f","left","(862, 362)",256,1,672.740589406845,27.7333076358172,"  869.33",236,4,1,1
"13",78,"right","SHINEd_Hat_Explorer.jpg","congruent","m",718.365205,"j","j","right","(862, 362)",188,1,709.675720676803,64.6684389057747,"  944.52",108,2,0,0
"13",79,"right","SHINEd_Cougar.jpg","incongruent","n",544.856147,"f","f","left","(862, 362)",276,1,536.38867194676,-108.618609824268," 1214.56",174,2,0,0
"13",80,"right","SHINEd_Cassette_Audio.jpg","congruent","m",549.406291,"j","j","right","(862, 362)",148,1,541.160825216718,-103.84645655431," 2285.57",295,2,1,NA
"13",81,"left","SHINEd_Fence_Wooden.jpg","incongruent","m",672.08385,"j","j","right","(148, 362)",163,1,664.060393486675,19.0531117156473," 1614.31",207,1,1,NA
"13",82,"right","SHINEd_Glasses_Reading.jpg","congruent","m",659.220136,"j","j","right","(862, 362)",200,1,651.418688756633,6.41140698560485,"  828.79",355,3,1,1
"13",83,"right","SHINEd_Pig.jpg","incongruent","n",582.301731,"f","f","left","(862, 362)",424,1,574.72229302659,-70.2849887444376," 4717.76",186,2,0,0
"13",84,"right","SHINEd_Guitar_Acoustic.jpg","congruent","m",684.667918,"j","j","right","(862, 362)",12,1,677.310489296548,32.3032075255199," 5020.77",182,3,1,1
"13",85,"right","SHINEd_Squid_Pink.jpg","incongruent","n",NA,"miss","f","left","(862, 362)",336,0,NA,NA," 3702.47",91,2,0,0
"13",86,"right","SHINEd_Lock_Combination.jpg","congruent","m",548.371634,"j","j","right","(862, 362)",64,1,541.458223836463,-103.549057934565," 4176.47",9,3,0,0
"13",87,"left","SHINEd_Ferret.jpg","congruent","n",NA,"miss","f","left","(148, 362)",239,0,NA,NA," 2425.07",189,2,0,0
"13",88,"left","SHINEd_Razor.jpg","incongruent","m",498.224722,"j","j","right","(148, 362)",119,1,491.755330376378,-153.25195139465," 1574.05",142,2,1,NA
"13",89,"right","SHINEd_Bib.jpg","congruent","m",901.48865,"f","j","right","(862, 362)",136,0,895.241267646335,250.233985875307," 2727.73",80,3,1,1
"13",90,"right","SHINEd_lorises.jpg","incongruent","n",713.601082,"f","f","left","(862, 362)",428,1,707.575708916293,62.568427145265,"  979.85",317,3,1,1
"13",91,"right","SHINEd_Kangaroo.jpg","incongruent","n",621.520575,"f","f","left","(862, 362)",312,1,615.717211186251,-29.2900705847775," 3345.47",111,1,0,0
"13",92,"left","SHINEd_Hippopotamus.jpg","congruent","n",528.187033,"f","f","left","(148, 362)",367,1,522.605678456208,-122.40160331482," 2241.16",256,3,1,1
"13",93,"left","SHINEd_Microwave.jpg","incongruent","m",531.728677,"j","j","right","(148, 362)",155,1,526.369331726166,-118.637950044862,"  902.28",253,3,1,1
"13",94,"right","SHINEd_Boots_KneeHigh.jpg","congruent","m",630.537177,"j","j","right","(862, 362)",152,1,625.399840996123,-19.6074407749049," 1044.58",430,3,0,0
"13",95,"right","SHINEd_Scorpion.jpg","incongruent","n",523.330474,"f","f","left","(862, 362)",396,1,518.415147266081,-126.592134504947," 2775.74",160,3,1,1
"13",96,"left","SHINEd_Tractor_Orange.jpg","incongruent","m",671.181202,"j","j","right","(148, 362)",175,1,666.487884536038,21.4806027650101," 1920.94",50,3,0,0
"13",97,"right","SHINEd_Light_Traffic.jpg","congruent","m",737.679805,"j","j","right","(862, 362)",180,1,733.208496805996,88.2012150349676," 1668.55",195,4,1,1
"13",98,"left","SHINEd_Stapler_Regular.jpg","incongruent","m",589.576914,"j","j","right","(148, 362)",43,1,585.327615075953,-59.6796666950748," 1573.79",143,4,1,1
"13",99,"right","SHINEd_CanOpener.jpg","congruent","m",552.967611,"j","j","right","(862, 362)",160,1,548.940321345911,-96.0669604251173," 2806.64",342,2,1,NA
"13",100,"left","SHINEd_FireHydrant.jpg","incongruent","m",572.819944,"j","j","right","(148, 362)",167,1,569.014663615868,-75.9926181551598," 1893.03",211,3,1,1
"13",101,"left","SHINEd_Belt.jpg","incongruent","m",568.692771,"j","j","right","(148, 362)",195,1,565.109499885826,-79.8977818852023," 1101.37",364,3,0,0
"13",102,"left","SHINEd_tooth.jpg","congruent","n",860.281992,"f","f","left","(148, 362)",363,1,856.920730155783,211.913448384755," 2057.24",125,3,1,1
"13",103,"right","SHINEd_HorseshoeCrab.jpg","incongruent","n",695.13486,"f","f","left","(862, 362)",260,1,691.995607425741,46.9883256547128," 1448.71",124,3,1,1
"13",104,"left","SHINEd_beluga.jpg","congruent","n",498.317348,"f","f","left","(148, 362)",431,1,495.400104695698,-149.60717707533," 1030.85",132,3,1,1
"13",105,"right","SHINEd_RibbonSpool.jpg","congruent","m",479.160318,"j","j","right","(862, 362)",80,1,476.465083965656,-168.542197805372," 1067.28",59,4,1,1
"13",106,"right","SHINEd_Pear_Yellow.jpg","incongruent","n",362.197134,"j","f","left","(862, 362)",416,0,359.723909235613,-285.283372535415,"  741.58",435,4,1,1
"13",107,"left","SHINEd_Sand.jpg","congruent","n",910.049642,"j","f","left","(148, 362)",279,0,907.798426505571,262.791144734543,"  938.64",184,4,1,1
"13",108,"right","SHINEd_maggotts.jpg","incongruent","n",536.262676,"f","f","left","(862, 362)",392,1,534.233469775529,-110.7738119955," 5871.19",118,2,0,0
"13",109,"right","SHINEd_Bottle_Bleach.jpg","congruent","m",629.00167,"j","j","right","(862, 362)",212,1,627.194473045486,-17.8128087255421," 1109.13",284,4,1,1
"13",110,"right","SHINEd_papaya.jpg","incongruent","n",663.227056,"f","f","left","(862, 362)",292,1,661.641868315443,16.6345865444154,"  880.12",179,2,0,0
"13",111,"right","SHINEd_Outhouse.jpg","congruent","m",564.144722,"j","j","right","(862, 362)",164,1,562.781543585401,-82.225738185627,"  680.44",312,3,0,0
"13",112,"left","SHINEd_CDstack.jpg","incongruent","m",767.377086,"j","j","right","(148, 362)",15,1,766.235916855358,121.22863508433,"  902.25",84,4,1,1
"13",113,"left","SHINEd_aloe.jpg","congruent","n",634.259401,"f","f","left","(148, 362)",299,1,633.340241125316,-11.667040645712," 2455.27",329,2,0,0
"13",114,"left","SHINEd_Chimpanzee.jpg","congruent","n",734.124178,"f","f","left","(148, 362)",255,1,733.427027395274,88.4197456242456," 4305.07",34,3,1,1
"13",115,"right","SHINEd_housefly.jpg","incongruent","n",490.133935,"j","f","left","(862, 362)",420,0,489.658793665231,-155.348488105797,"17583.84",106,3,1,1
"13",116,"right","SHINEd_Clothespin_Red.jpg","congruent","m",589.566659,"j","j","right","(862, 362)",60,1,589.313526935189,-55.6937548358395," 1376.83",86,4,1,1
"13",117,"right","SHINEd_Camel_Bactrian.jpg","incongruent","n",527.410043,"f","f","left","(862, 362)",344,1,527.378920205146,-117.628361565882," 2376.08",270,4,1,1
"13",118,"left","SHINEd_Swan.jpg","congruent","n",524.130511,"f","f","left","(148, 362)",443,1,524.321397475104,-120.685884295924," 2680.15",147,2,1,NA
"13",119,"right","SHINEd_vulture.jpg","incongruent","n",479.411957,"f","f","left","(862, 362)",436,1,479.824852745061,-165.182429025967," 2145.18",321,3,1,1
"13",120,"left","SHINEd_alligator.jpg","congruent","n",331.199562,"f","f","left","(148, 362)",355,1,331.834467015019,-313.172814756009," 3375.10",153,4,1,1
"13",121,"left","SHINEd_KeyHook_Empty.jpg","incongruent","m",494.150539,"j","j","right","(148, 362)",223,1,495.007453284976,-149.999828486052," 3406.22",269,2,0,0
"13",122,"left","SHINEd_Seashell_RoseMurex.jpg","congruent","n",577.892596,"f","f","left","(148, 362)",327,1,578.971519554934,-66.0357622160943," 1577.15",100,2,0,0
"13",123,"right","SHINEd_sloth.jpg","incongruent","n",557.90995,"f","f","left","(862, 362)",304,1,559.210882824891,-85.7963989461368," 1756.45",158,3,1,1
"13",124,"left","SHINEd_ashtray.jpg","incongruent","m",610.477107,"j","j","right","(148, 362)",227,1,612.000049094849,-33.0072326761792," 2151.38",224,4,1,1
"13",125,"left","SHINEd_mapleleaf.jpg","congruent","n",539.760984,"f","f","left","(148, 362)",335,1,541.505935364806,-103.501346406222,"  726.80",453,4,1,1
"13",126,"right","SHINEd_fig.jpg","incongruent","n",559.553174,"f","f","left","(862, 362)",412,1,561.520134634764,-83.4871471362642," 1123.46",68,4,1,1
"13",127,"right","SHINEd_Exercise_Bike.jpg","congruent","m",563.362273,"j","j","right","(862, 362)",24,1,565.551242904721,-79.4560388663067," 6245.46",116,1,0,0
"13",128,"right","SHINEd_Cow.jpg","incongruent","n",527.619222,"f","f","left","(862, 362)",320,1,530.030201174679,-114.977080596349," 2239.46",2,4,1,1
"13",129,"right","SHINEd_Pitcher.jpg","congruent","m",521.92192,"j","j","right","(862, 362)",56,1,524.554908444636,-120.452373326392," 1387.75",399,2,1,NA
"13",130,"right","SHINEd_Banana.jpg","incongruent","n",581.441529,"f","f","left","(862, 362)",376,1,584.296526714594,-60.7107550564342," 2133.97",223,2,0,0
"13",131,"right","SHINEd_Button.jpg","congruent","m",577.673241,"j","j","right","(862, 362)",4,1,580.750247984551,-64.2570337864766," 1196.76",239,1,0,0
"13",132,"right","SHINEd_FireExtinguisher.jpg","congruent","m",598.904524,"j","j","right","(862, 362)",112,1,602.203540254509,-42.803741516519," 1288.81",334,3,1,1
"13",133,"left","SHINEd_Ship_Model.jpg","incongruent","m",875.994909,"j","j","right","(148, 362)",83,1,879.515934524467,234.508652753438," 1037.47",26,4,1,1
"13",134,"left","SHINEd_Peach.jpg","congruent","n",NA,"miss","f","left","(148, 362)",323,0,NA,NA," 1568.31",297,2,1,NA
"13",135,"left","SHINEd_Bat_Baseball.jpg","incongruent","m",562.004555,"j","j","right","(148, 362)",127,1,565.969599064382,-79.0376827066465,"  733.46",138,4,1,1
"13",136,"right","SHINEd_rhino.jpg","incongruent","n",510.131803,"f","f","left","(862, 362)",352,1,514.318856334339,-130.688425436689,"  149.50",247,3,1,1
"13",137,"right","SHINEd_Earrings_Dangling.jpg","congruent","m",752.593811,"j","j","right","(862, 362)",196,1,757.002873604296,111.995591833269," 2359.30",103,4,1,1
"13",138,"right","SHINEd_Fridge.jpg","congruent","m",611.492406,"j","j","right","(862, 362)",44,1,616.123477874254,-28.883803896774," 1285.20",133,2,0,0
"13",139,"right","SHINEd_Buffalo.jpg","incongruent","n",495.51368,"f","f","left","(862, 362)",432,1,500.366761144212,-144.640520626816," 1735.99",141,4,1,1
"13",140,"right","SHINEd_Hammock.jpg","congruent","m",NA,"miss","j","right","(862, 362)",208,0,NA,NA," 1117.62",385,3,0,0
"13",141,"left","SHINEd_Organ.jpg","incongruent","m",545.067489,"j","j","right","(148, 362)",7,1,550.364588684127,-94.6426930869013," 1159.26",249,4,1,1
"13",142,"right","SHINEd_Tape_Scotch.jpg","congruent","m",684.130755,"j","j","right","(862, 362)",228,1,689.649863954084,44.6425821830562,"  894.15",357,4,1,1
"13",143,"left","SHINEd_DryRack_Dishes.jpg","incongruent","m",527.06312,"j","j","right","(148, 362)",135,1,532.804238224042,-112.203043546986," 1671.16",137,3,1,1
"13",144,"right","SHINEd_Box_Package.jpg","congruent","m",578.668619,"j","j","right","(862, 362)",220,1,584.631746493999,-60.3755352770288," 2605.37",305,4,1,1
"13",145,"left","SHINEd_MousepadAndMouse.jpg","incongruent","m",518.698665,"j","j","right","(148, 362)",99,1,524.883801763957,-120.123480007071," 2839.59",307,4,1,1
"13",146,"left","SHINEd_Bus_School.jpg","incongruent","m",578.371027,"f","j","right","(148, 362)",171,0,584.778173033914,-60.2291087371137," 2401.15",107,3,1,1
"13",147,"right","SHINEd_SnowGlobe.jpg","congruent","m",735.616813,"j","j","right","(862, 362)",84,1,742.245968303872,97.2386865328438," 1133.86",281,4,1,1
"13",148,"right","SHINEd_gazelle.jpg","incongruent","n",690.833621,"f","f","left","(862, 362)",268,1,697.684785573829,52.6775038028013," 1765.73",14,4,1,1
"13",149,"left","SHINEd_Caribou.jpg","congruent","n",630.337991,"f","f","left","(148, 362)",435,1,637.411164843787,-7.59611692724119," 2126.20",254,3,1,1
"13",150,"left","SHINEd_moth.jpg","congruent","n",569.013512,"f","f","left","(148, 362)",427,1,576.308695113744,-68.6985866572837," 1023.72",261,3,1,1
"13",151,"left","SHINEd_white sesame.jpg","congruent","n",581.461708,"j","f","left","(148, 362)",371,0,588.978900383702,-56.0283813873261," 1933.55",64,4,1,1
"13",152,"right","SHINEd_bullrush.jpg","incongruent","n",960.085092,"f","f","left","(862, 362)",324,1,967.824293653659,322.817011882631," 2495.42",32,4,1,1
"13",153,"left","SHINEd_Harp.jpg","incongruent","m",621.238254,"j","j","right","(148, 362)",11,1,629.199464923617,-15.8078168474111,"  948.47",456,4,1,1
"13",154,"left","SHINEd_Puffin.jpg","congruent","n",655.989405,"f","f","left","(148, 362)",231,1,664.172625193575,19.1653434225465,"  949.60",386,3,1,1
"13",155,"right","SHINEd_Key_Car.jpg","congruent","m",844.426089,"j","j","right","(862, 362)",176,1,852.831318463532,207.824036692504," 6024.02",96,3,1,1
"13",156,"left","SHINEd_zebra.jpg","congruent","n",465.110318,"j","f","left","(148, 362)",447,0,473.73755673349,-171.269725037539," 1565.86",382,4,1,1
"13",157,"left","SHINEd_Box_GiftTopView.jpg","incongruent","m",NA,"miss","j","right","(148, 362)",219,0,NA,NA," 1565.02",413,3,1,1
"13",158,"left","SHINEd_Oars.jpg","incongruent","m",526.476767,"j","j","right","(148, 362)",19,1,535.548024273405,-109.459257497623," 1138.88",455,2,1,NA
"13",159,"left","SHINEd_feather.jpg","congruent","n",657.658284,"f","f","left","(148, 362)",415,1,666.951550543362,21.944268772334," 1121.06",388,2,0,0
"13",160,"left","SHINEd_Nuts_Peanuts.jpg","congruent","n",662.49132,"f","f","left","(148, 362)",235,1,672.00659581332,26.9993140422915," 2055.27",217,3,1,1
"13",161,"left","SHINEd_firetruck.jpg","incongruent","m",498.289853,"j","j","right","(148, 362)",179,1,508.027138083277,-136.980143687751," 1960.21",348,3,0,0
"13",162,"left","SHINEd_alfalfa.jpg","congruent","n",580.219663,"f","f","left","(148, 362)",283,1,590.178957353235,-54.8283244177934," 1210.19",425,3,0,0
"13",163,"left","SHINEd_Notepad.jpg","incongruent","m",544.172646,"j","j","right","(148, 362)",71,1,554.353949623192,-90.6533321478359," 2142.95",150,4,1,1
"13",164,"left","SHINEd_tree.jpg","congruent","n",549.007584,"f","f","left","(148, 362)",375,1,559.41089689315,-85.5963848778784," 5197.73",303,2,1,NA
"13",165,"right","SHINEd_Leaf_Green.jpg","incongruent","n",792.009077,"j","f","left","(862, 362)",448,0,802.634399163107,157.627117392079," 1672.72",319,3,1,1
"13",166,"right","SHINEd_Clam.jpg","incongruent","n",588.00854,"f","f","left","(862, 362)",340,1,598.855871433065,-46.1514103379633," 1350.07",16,4,1,1
"13",167,"left","SHINEd_Olives.jpg","congruent","n",550.474432,"f","f","left","(148, 362)",419,1,561.543772703022,-83.4635090680058," 1468.21",349,3,1,1
"13",168,"right","SHINEd_Squash_Butternut.jpg","incongruent","n",922.356407,"f","f","left","(862, 362)",444,1,933.64775697298,288.640475201952," 3190.34",377,3,0,0
"13",169,"right","SHINEd_Garbage_GreenBin.jpg","congruent","m",662.501904,"j","j","right","(862, 362)",144,1,674.015263242937,29.0079814719092," 3423.78",193,4,1,1
"13",170,"right","SHINEd_DrainPlug.jpg","congruent","m",737.54532,"f","j","right","(862, 362)",140,0,749.280688512895,104.273406741867,"  990.69",209,2,1,NA
"13",171,"left","SHINEd_puffer-fish.jpg","congruent","n",780.77066,"f","f","left","(148, 362)",339,1,792.728037782852,147.720756011824," 1174.54",191,3,0,0
"13",172,"left","SHINEd_Light_Siren.jpg","incongruent","m",841.533401,"j","j","right","(148, 362)",95,1,853.71278805281,208.705506281782," 1166.91",272,1,0,0
"13",173,"left","SHINEd_Fish_Swordfish.jpg","congruent","n",667.53324,"f","f","left","(148, 362)",331,1,679.934636322767,34.9273545517393,"  743.58",356,3,1,1
"13",174,"right","SHINEd_Lion.jpg","incongruent","n",661.062075,"f","f","left","(862, 362)",316,1,673.685480592725,28.6781988216969," 2814.02",409,4,1,1
"13",175,"left","SHINEd_OnionRed.jpg","congruent","n",601.203218,"f","f","left","(148, 362)",383,1,614.048632862682,-30.9586489083456," 1081.88",393,3,1,1
"13",176,"left","SHINEd_goldfish.jpg","congruent","n",525.46817,"f","f","left","(148, 362)",275,1,538.53559413264,-106.471687638388," 1965.66",229,3,1,1
"13",177,"right","SHINEd_Bird_CanadianGoose.jpg","incongruent","n",552.533883,"f","f","left","(862, 362)",388,1,565.823316402597,-79.1839653684306," 1047.77",139,3,1,1
"13",178,"right","SHINEd_SpinningWheel.jpg","congruent","m",636.941543,"j","j","right","(862, 362)",124,1,650.452985672555,5.445703901527," 4109.26",135,1,1,NA
"13",179,"right","SHINEd_anteater.jpg","incongruent","n",687.940922,"f","f","left","(862, 362)",368,1,701.674373942512,56.6670921714845," 2003.66",441,3,0,0
"13",180,"left","SHINEd_bat.jpg","congruent","n",524.493759,"f","f","left","(148, 362)",403,1,538.44922021247,-106.558061558558," 1870.97",251,2,1,NA
"13",181,"left","SHINEd_sunflowers.jpg","congruent","n",463.35935,"f","f","left","(148, 362)",395,1,477.536820482428,-167.4704612886,"  879.23",311,3,1,1
"13",182,"right","SHINEd_Cucumber.jpg","incongruent","n",650.687491,"f","f","left","(862, 362)",364,1,665.086970752385,20.0796889813571," 1436.37",29,4,1,1
"13",183,"left","SHINEd_lime.jpg","congruent","n",494.980941,"f","f","left","(148, 362)",439,1,509.602430022343,-135.404851748685," 3854.55",250,3,0,0
"13",184,"right","SHINEd_Pepper_Chili.jpg","incongruent","n",610.803807,"f","f","left","(862, 362)",240,1,625.6473052923,-19.3599764787279," 2791.37",408,3,1,1
"13",185,"right","SHINEd_Shampoo.jpg","congruent","m",589.626918,"j","j","right","(862, 362)",120,1,604.692425562258,-40.3148562087703," 1317.39",69,4,1,1
"13",186,"left","SHINEd_KiddiePool.jpg","incongruent","m",529.07445,"j","j","right","(148, 362)",87,1,544.361966832215,-100.645314938813,"11318.07",78,2,0,0
"13",187,"right","SHINEd_CompassCardinal.jpg","congruent","m",643.786807,"j","j","right","(862, 362)",40,1,659.296333102173,14.2890513311446," 1039.30",71,4,1,1
"13",188,"left","SHINEd_Bowtie.jpg","incongruent","m",727.579977,"j","j","right","(148, 362)",191,1,743.31151237213,98.3042306011022,"  990.71",440,2,0,0
"13",189,"right","SHINEd_groundhog.jpg","incongruent","n",499.740582,"f","f","left","(862, 362)",404,1,515.694126642088,-129.31315512894," 4111.30",394,4,1,1
"13",190,"left","SHINEd_penguin.jpg","congruent","n",501.960614,"f","f","left","(148, 362)",307,1,518.136167912045,-126.871113858983," 1976.47",338,4,1,1
"13",191,"left","SHINEd_Crab.jpg","congruent","n",619.299817,"f","f","left","(148, 362)",259,1,635.697380182003,-9.30990158902527," 1462.90",395,2,1,NA
"13",192,"left","SHINEd_birdie.jpg","incongruent","m",494.380611,"j","j","right","(148, 362)",131,1,511.00018345196,-134.007098319068," 1120.29",131,3,1,1
"13",193,"right","SHINEd_mint.jpg","incongruent","n",691.168535,"j","f","left","(862, 362)",360,0,708.010116721918,63.0028349508898," 2565.96",346,2,1,NA
"13",194,"right","SHINEd_LifeJacket_BlueYellow.jpg","congruent","m",829.999571,"f","j","right","(862, 362)",16,0,847.063161991875,202.055880220847," 1422.17",35,4,1,1
"13",195,"left","SHINEd_Staircase_Curving.jpg","incongruent","m",874.192431,"j","j","right","(148, 362)",115,1,891.478031261833,246.470749490805," 1110.35",63,3,1,1
"13",196,"left","SHINEd_almond.jpg","congruent","n",773.607486,"f","f","left","(148, 362)",311,1,791.11509553179,146.107813760762," 1311.72",30,4,1,1
"13",197,"right","SHINEd_EspressoMachine.jpg","congruent","m",713.352272,"j","j","right","(862, 362)",156,1,731.081890801748,86.0746090307199," 2601.66",66,3,0,0
"13",198,"left","SHINEd_pine-cone-.jpg","congruent","n",740.763247,"f","f","left","(148, 362)",399,1,758.714875071705,113.707593300677," 1430.15",206,3,1,1
"13",199,"left","SHINEd_LetterMail.jpg","incongruent","m",718.813926,"j","j","right","(148, 362)",75,1,736.987563341663,91.980281570635," 1495.63",263,4,1,1
"13",200,"left","SHINEd_elbow.jpg","congruent","n",667.927947,"j","f","left","(148, 362)",263,0,686.32359361162,41.3163118405925," 1029.46",36,4,1,1
"13",201,"right","SHINEd_seatAirplane.jpg","congruent","m",862.587682,"j","j","right","(862, 362)",172,1,881.205337881578,236.19805611055," 1630.31",283,3,0,0
"13",202,"right","SHINEd_CoffeeBeans.jpg","incongruent","n",594.428554,"f","f","left","(862, 362)",332,1,613.268219151536,-31.7390626194925,"  757.25",398,4,1,1
"13",203,"left","SHINEd_tentacle.jpg","congruent","n",748.913579,"f","f","left","(148, 362)",247,1,767.975253421493,122.967971650465," 2344.49",156,4,1,1
"13",204,"left","SHINEd_Flower_Daisy.jpg","congruent","n",817.78181,"j","f","left","(148, 362)",351,0,837.065493691451,192.058211920423," 1198.33",244,4,1,1
"13",205,"left","SHINEd_FloppyDisk.jpg","incongruent","m",916.143594,"j","j","right","(148, 362)",147,1,935.649286961408,290.64200519038,"  844.56",422,4,1,1
"13",206,"right","SHINEd_Plum.jpg","incongruent","n",969.058756,"f","f","left","(862, 362)",244,1,988.786458231366,343.779176460338,"  886.78",140,4,1,1
"13",207,"left","SHINEd_Owl.jpg","congruent","n",540.368257,"f","f","left","(148, 362)",407,1,560.317968501323,-84.6893132697049,"  824.92",87,4,1,1
"13",208,"right","SHINEd_PassionFruit.jpg","incongruent","n",583.464867,"f","f","left","(862, 362)",452,1,603.636587771281,-41.3706939997473," 1324.48",120,3,1,1
"13",209,"right","SHINEd_Celery.jpg","incongruent","n",739.299298,"j","f","left","(862, 362)",272,0,759.693028041238,114.68574627021," 1736.78",25,4,1,1
"13",210,"left","SHINEd_Coral.jpg","congruent","n",662.940414,"f","f","left","(148, 362)",455,1,683.556153311196,38.5488715401677," 2624.28",273,2,0,0
"13",211,"right","SHINEd_Blackboard.jpg","congruent","m",609.121404,"j","j","right","(862, 362)",72,1,629.959152581153,-15.0481291898748," 1271.98",52,4,1,1
"13",212,"left","SHINEd_Crayon_Green.jpg","incongruent","m",501.753353,"j","j","right","(148, 362)",63,1,522.813110851111,-122.194170919917," 2055.39",331,3,1,1
"13",213,"left","SHINEd_KitchenCloth.jpg","incongruent","m",696.838742,"j","j","right","(148, 362)",143,1,718.120509121068,73.1132273500403,"  895.96",444,4,1,1
"13",214,"right","SHINEd_PencilCase.jpg","congruent","m",635.681022,"j","j","right","(862, 362)",68,1,657.184798391026,12.1775166199978," 3156.43",213,3,1,1
"13",215,"left","SHINEd_Bed_Hospital.jpg","incongruent","m",894.94923,"j","j","right","(148, 362)",207,1,916.675015660983,271.667733889955," 1196.43",412,2,0,0
"13",216,"left","SHINEd_Cage_Bird.jpg","incongruent","m",NA,"miss","j","right","(148, 362)",123,0,NA,NA," 1464.52",306,3,0,0
"13",217,"left","SHINEd_tamarinds.jpg","congruent","n",525.812102,"f","f","left","(148, 362)",451,1,547.981906200898,-97.0253755701297,"  982.89",121,3,1,1
"13",218,"left","SHINEd_MannequinBust.jpg","incongruent","m",690.659493,"j","j","right","(148, 362)",103,1,713.051306470856,68.0440246998279," 1025.42",452,4,1,1
"13",219,"left","SHINEd_Stroller.jpg","incongruent","m",525.616352,"j","j","right","(148, 362)",55,1,548.230174740813,-96.7771070302146," 1023.37",83,3,1,1
"13",220,"right","SHINEd_Tie.jpg","congruent","m",465.66864,"j","j","right","(862, 362)",192,1,488.504472010771,-156.502809760257," 2426.74",448,4,1,1
"13",221,"right","SHINEd_IroningBoard.jpg","congruent","m",628.844703,"j","j","right","(862, 362)",52,1,651.902544280728,6.89526250970042," 1000.60",146,2,1,NA
"13",222,"left","SHINEd_Eggplant.jpg","congruent","n",688.582924,"f","f","left","(148, 362)",267,1,711.862774550686,66.855492779658," 2032.36",181,2,1,NA
"13",223,"right","SHINEd_Bolt.jpg","congruent","m",593.250532,"j","j","right","(862, 362)",32,1,616.752391820644,-28.2548899503845," 1277.67",245,4,1,1
"13",224,"left","SHINEd_Barbecue_Gas.jpg","incongruent","m",541.661917,"j","j","right","(148, 362)",159,1,565.385786090601,-79.621495680427," 1749.75",279,1,0,0
"13",225,"right","SHINEd_chick hatch.jpg","incongruent","n",656.957125,"f","f","left","(862, 362)",384,1,680.903003360559,35.8957215895305," 1215.10",265,4,1,1
"13",226,"left","SHINEd_Seahorse.jpg","congruent","n",659.197411,"f","f","left","(148, 362)",347,1,683.365298630516,38.358016859488," 3080.10",37,3,1,1
"13",227,"left","SHINEd_paddle ball.jpg","incongruent","m",561.33929,"j","j","right","(148, 362)",27,1,585.729186900474,-59.2780948705544," 2782.33",70,3,0,0
"13",228,"right","SHINEd_bee.jpg","incongruent","n",468.503677,"j","f","left","(862, 362)",380,0,493.115583170431,-151.891698600597," 3767.37",12,1,0,0
