"participant","trial_index","screenposition","stimulus","trialtype","classifyenc","rt","response","responsecorrect","responsecorrect_side","screenlocation","stimnum","acc","rtResidual","rtResidualC","rt_rec","trialno_rec","ratingConfidence","acc_rec","memoryHits.hc"
"17",1,"right","SHINEd_greenapple.jpg","incongruent","n",709.133636,"f","f","left","(862, 362)",410,1,707.680119975061,66.6510746223828," 6615.56",68,3,0,0
"17",2,"left","SHINEd_cheetah.jpg","congruent","n",674.373551,"f","f","left","(148, 362)",245,1,672.932723996052,31.903678643373," 1976.41",199,3,1,1
"17",3,"left","SHINEd_Giraffe.jpg","congruent","n",846.349163,"f","f","left","(148, 362)",381,1,844.921025017042,203.891979664363,"  936.06",236,4,1,1
"17",4,"right","SHINEd_raccoon.jpg","incongruent","n",548.170268,"j","f","left","(862, 362)",262,0,546.754819038032,-94.2742263146467,"  999.28",26,4,1,1
"17",5,"right","SHINEd_airpump.jpg","congruent","m",703.172291,"j","j","right","(862, 362)",114,1,701.769531059022,60.7404857063434," 1536.22",102,2,0,0
"17",6,"right","SHINEd_BearPolar.jpg","incongruent","n",682.279364,"f","f","left","(862, 362)",386,1,680.889293080012,39.8602477273336,"  909.69",438,4,1,1
"17",7,"right","SHINEd_ClothCoaster.jpg","congruent","m",542.622982,"j","j","right","(862, 362)",142,1,541.245600101002,-99.7834452516763," 1109.77",222,4,1,1
"17",8,"left","SHINEd_Vase_Decorative copy.jpg","incongruent","m",547.927497,"j","j","right","(148, 362)",221,1,546.562804121993,-94.4662412306861," 1039.54",403,4,1,1
"17",9,"right","SHINEd_accordion.jpg","congruent","m",NA,"miss","j","right","(862, 362)",10,0,NA,NA,"  879.19",413,4,1,1
"17",10,"left","SHINEd_Camera_Video.jpg","incongruent","m",606.099569,"j","j","right","(148, 362)",97,1,604.760254163973,-36.2687911887058," 2266.53",14,2,0,0
"17",11,"left","SHINEd_Knee.jpg","congruent","n",617.635746,"j","f","left","(148, 362)",309,0,616.309120184963,-24.7199251677156,"  817.32",265,4,1,1
"17",12,"left","SHINEd_Saw.jpg","incongruent","m",733.393179,"j","j","right","(148, 362)",33,1,732.079242205953,91.0501968532745," 1382.11",80,4,1,1
"17",13,"left","SHINEd_whale.jpg","congruent","n",511.904038,"f","f","left","(148, 362)",421,1,510.602790226943,-130.426255125735," 2125.87",263,3,0,0
"17",14,"right","SHINEd_Grape.jpg","incongruent","n",748.633932,"j","f","left","(862, 362)",274,0,747.345373247933,106.316327895255," 5143.56",41,2,1,NA
"17",15,"right","SHINEd_Nail.jpg","congruent","m",NA,"miss","j","right","(862, 362)",38,0,NA,NA," 1223.95",258,4,1,1
"17",16,"left","SHINEd_HairDryer.jpg","incongruent","m",586.9151,"j","j","right","(148, 362)",45,1,585.651919289914,-55.3771260627648," 2024.66",2,3,1,1
"17",17,"right","SHINEd_ChalkboardEraser.jpg","congruent","m",NA,"miss","j","right","(862, 362)",62,0,NA,NA," 3694.53",144,4,1,1
"17",18,"right","SHINEd_Cherry.jpg","incongruent","n",587.504493,"f","f","left","(862, 362)",258,1,586.266690331894,-54.7623550207846," 1109.05",392,4,1,1
"17",19,"right","SHINEd_Starfish.jpg","incongruent","n",695.527604,"f","f","left","(862, 362)",378,1,694.302490352884,53.2734450002055," 2072.09",251,3,0,0
"17",20,"left","SHINEd_artichoke.jpg","congruent","n",618.974531,"f","f","left","(148, 362)",453,1,617.762106373874,-23.2669389788043," 1735.89",168,4,1,1
"17",21,"left","SHINEd_BasketballHoop.jpg","incongruent","m",638.754778,"j","j","right","(148, 362)",129,1,637.555042394864,-3.47400295781416," 1125.99",30,4,1,1
"17",22,"right","SHINEd_durian.jpg","incongruent","n",489.943712,"f","f","left","(862, 362)",374,1,488.756665415855,-152.272379936824," 1144.62",78,4,1,1
"17",23,"right","SHINEd_Ball_Bowling.jpg","congruent","m",572.860287,"f","j","right","(862, 362)",134,0,571.685929436845,-69.3431159158339," 1440.88",125,4,1,1
"17",24,"right","SHINEd_Lips_Real.jpg","incongruent","n",608.752588,"f","f","left","(862, 362)",390,1,607.590919457835,-33.4381258948438," 1014.43",83,4,1,1
"17",25,"left","SHINEd_Broccoli.jpg","congruent","n",574.168236,"j","f","left","(148, 362)",253,0,573.019256478825,-68.0097888738536," 1800.28",94,3,1,1
"17",26,"right","SHINEd_scallion.jpg","incongruent","n",818.386412,"f","f","left","(862, 362)",314,1,817.250121499815,176.221076147137," 1351.34",242,4,1,1
"17",27,"left","SHINEd_Fish_Rockbass.jpg","congruent","n",805.541932,"f","f","left","(148, 362)",341,1,804.418330520805,163.389285168127," 2150.00",391,3,0,0
"17",28,"left","SHINEd_Elephant.jpg","congruent","n",611.791847,"f","f","left","(148, 362)",349,1,610.680934541796,-30.3481108108831," 2271.79",131,4,1,1
"17",29,"right","SHINEd_rabbitt.jpg","incongruent","n",536.252014,"f","f","left","(862, 362)",350,1,535.153790562786,-105.875254789893," 1054.97",349,4,1,1
"17",30,"right","SHINEd_Scooter.jpg","congruent","m",586.545657,"j","j","right","(862, 362)",174,1,585.460122583776,-55.5689227689028,"  765.79",411,4,1,1
"17",31,"left","SHINEd_BicycleChain.jpg","incongruent","m",528.585263,"j","j","right","(148, 362)",17,1,527.512417604766,-113.516627747913,"  966.46",248,4,1,1
"17",32,"left","SHINEd_MusicSheet.jpg","incongruent","m",660.743481,"j","j","right","(148, 362)",13,1,659.683324625756,18.6542792730775,"  940.98",304,4,1,1
"17",33,"left","SHINEd_pumpkinseeds-.jpg","congruent","n",745.571109,"f","f","left","(148, 362)",237,1,744.523641646746,103.494596294068,"  748.89",450,4,1,1
"17",34,"left","SHINEd_Cannon.jpg","incongruent","m",501.866513,"j","j","right","(148, 362)",61,1,500.831734667736,-140.197310684942," 1432.06",22,4,1,1
"17",35,"left","SHINEd_donkey.jpg","congruent","n",499.489777,"f","f","left","(148, 362)",409,1,498.467687688727,-142.561357663952," 1049.22",426,3,1,1
"17",36,"left","SHINEd_FileDivider.jpg","incongruent","m",694.596504,"j","j","right","(148, 362)",69,1,693.587103709717,52.5580583570381," 2079.77",316,2,1,NA
"17",37,"left","SHINEd_rhino horn.jpg","congruent","n",682.710179,"f","f","left","(148, 362)",249,1,681.713467730707,40.6844223780283," 1366.14",36,4,1,1
"17",38,"left","SHINEd_Magnifying_Glass.jpg","incongruent","m",678.435178,"j","j","right","(148, 362)",105,1,677.451155751697,36.4221103990183," 1259.55",285,4,1,1
"17",39,"left","SHINEd_Lilypad.jpg","congruent","n",930.83655,"f","f","left","(148, 362)",413,1,929.865216772687,288.836171420009," 2183.38",246,3,0,0
"17",40,"right","SHINEd_Bowl_Fruits.jpg","incongruent","n",742.707271,"f","f","left","(862, 362)",434,1,741.748626793677,100.719581440999," 1341.60",399,4,1,1
"17",41,"right","SHINEd_Heater_Outdoor.jpg","congruent","m",564.53596,"j","j","right","(862, 362)",170,1,563.590004814668,-77.4390405380111," 1061.78",402,4,1,1
"17",42,"right","SHINEd_treestump.jpg","incongruent","n",631.438486,"f","f","left","(862, 362)",414,1,630.505219835658,-10.523825517021," 2095.11",207,3,0,0
"17",43,"left","SHINEd_Collards.jpg","congruent","n",621.135761,"f","f","left","(148, 362)",445,1,620.215183856648,-20.8138614960309," 2817.74",65,3,0,0
"17",44,"right","SHINEd_honeydew.jpg","incongruent","n",833.215539,"f","f","left","(862, 362)",330,1,832.307650877638,191.278605524959," 1109.40",123,4,1,1
"17",45,"left","SHINEd_Ruler_Wooden.jpg","incongruent","m",534.278325,"j","j","right","(148, 362)",73,1,533.383125898628,-107.645919454051,"  926.85",164,4,1,1
"17",46,"right","SHINEd_RollerBlade.jpg","congruent","m",571.387375,"f","j","right","(862, 362)",178,0,570.504864919618,-70.5241804330604,"  982.72",415,2,0,0
"17",47,"right","SHINEd_hyena.jpg","incongruent","n",519.638329,"f","f","left","(862, 362)",422,1,518.768507940608,-122.26053741207," 7580.88",454,3,0,0
"17",48,"right","SHINEd_avocado.jpg","incongruent","n",580.21704,"f","f","left","(862, 362)",394,1,579.359907961599,-61.6691373910801," 1790.91",294,2,1,NA
"17",49,"right","SHINEd_Kite_Rainbow.jpg","congruent","m",807.895098,"f","j","right","(862, 362)",78,0,807.050654982589,166.02160962991," 1070.87",52,4,1,1
"17",50,"left","SHINEd_Escalator.jpg","incongruent","m",772.693028,"j","j","right","(148, 362)",177,1,771.861274003579,130.8322286509," 3550.10",303,4,1,1
"17",51,"left","SHINEd_dinosaur fossil.jpg","congruent","n",593.713667,"f","f","left","(148, 362)",377,1,592.894602024569,-48.1344433281097,"  799.58",406,4,1,1
"17",52,"right","SHINEd_Cheesegrater_Handheld.jpg","congruent","m",806.955042,"j","j","right","(862, 362)",162,1,806.148666045559,165.119620692881," 1607.62",197,4,1,1
"17",53,"right","SHINEd_Nuts_Pecan.jpg","incongruent","n",890.437167,"f","f","left","(862, 362)",246,1,889.643480066549,248.614434713871," 1320.50",296,4,1,1
"17",54,"right","SHINEd_Briefcase_Leather.jpg","congruent","m",574.72835,"j","j","right","(862, 362)",210,1,573.947352087539,-67.0816932651393," 1287.04",300,4,1,1
"17",55,"left","SHINEd_RecordPlayer.jpg","incongruent","m",618.371856,"j","j","right","(148, 362)",149,1,617.603547108529,-23.4254982441491,"  895.32",422,4,1,1
"17",56,"right","SHINEd_Radish.jpg","incongruent","n",725.375912,"f","f","left","(862, 362)",242,1,724.62029212952,83.591246776841," 2957.06",367,3,0,0
"17",57,"left","SHINEd_Paw.jpg","congruent","n",620.091253,"f","f","left","(148, 362)",301,1,619.34832215051,-21.6807232021687," 1265.60",113,4,1,1
"17",58,"left","SHINEd_Colander.jpg","incongruent","m",568.385717,"j","j","right","(148, 362)",41,1,567.6554751715,-73.3735701811786," 2143.82",4,3,1,1
"17",59,"left","SHINEd_worm.jpg","congruent","n",629.303458,"f","f","left","(148, 362)",389,1,628.58590519249,-12.4431401601885," 1031.66",238,4,1,1
"17",60,"right","SHINEd_Lynx.jpg","incongruent","n",495.584824,"f","f","left","(862, 362)",438,1,494.87996021348,-146.149085139198," 1992.20",119,2,1,NA
"17",61,"left","SHINEd_ShoppingCart.jpg","incongruent","m",502.300006,"j","j","right","(148, 362)",109,1,501.60783123447,-139.421214118208," 2006.47",139,4,1,1
"17",62,"right","SHINEd_Mirror_Makeup.jpg","congruent","m",808.940737,"j","j","right","(862, 362)",122,1,808.261251255461,167.232205902782," 2534.57",245,4,1,1
"17",63,"left","SHINEd_Gum_Pack.jpg","incongruent","m",869.83848,"j","j","right","(148, 362)",77,1,869.171683276451,228.142637923772," 2247.30",191,4,1,1
"17",64,"right","SHINEd_Lipstick.jpg","congruent","m",640.870604,"j","j","right","(862, 362)",198,1,640.216496297441,-0.812549055237776," 1702.78",221,3,0,0
"17",65,"right","SHINEd_fox.jpg","incongruent","n",524.738055,"f","f","left","(862, 362)",334,1,524.096636318431,-116.932409034248," 2152.52",379,2,1,NA
"17",66,"right","SHINEd_Slippers.jpg","congruent","m",561.391109,"j","j","right","(862, 362)",154,1,560.762379339421,-80.2666660132574,"  823.88",224,4,1,1
"17",67,"left","SHINEd_fountain.jpg","incongruent","m",590.340537,"j","j","right","(148, 362)",169,1,589.724496360411,-51.3045489922672," 1511.73",281,3,1,1
"17",68,"right","SHINEd_lotusroot.jpg","incongruent","n",675.561351,"f","f","left","(862, 362)",298,1,674.957999381401,33.9289540287228," 1903.54",81,4,1,1
"17",69,"right","SHINEd_Jacket_Suit.jpg","congruent","m",567.115259,"j","j","right","(862, 362)",2,1,566.524596402392,-74.5044489502869," 1007.56",233,4,1,1
"17",70,"left","SHINEd_Desk_School.jpg","incongruent","m",947.521343,"j","j","right","(148, 362)",201,1,946.943369423382,305.914324070703," 1550.90",330,4,1,1
"17",71,"right","SHINEd_Hourglass.jpg","congruent","m",727.065717,"j","j","right","(862, 362)",110,1,726.500432444372,85.4713870916933," 3128.21",301,2,0,0
"17",72,"left","SHINEd_Gametable_AirHockey.jpg","incongruent","m",716.082651,"j","j","right","(148, 362)",85,1,715.530055465362,74.5010101126835," 2069.61",377,2,1,NA
"17",73,"right","SHINEd_Box_Notepaper.jpg","congruent","m",695.387581,"j","j","right","(862, 362)",70,1,694.847674486352,53.8186291336736," 1703.43",210,2,0,0
"17",74,"right","SHINEd_Goat.jpg","incongruent","n",515.036358,"f","f","left","(862, 362)",322,1,514.509140507342,-126.519904845336," 2367.45",433,3,1,1
"17",75,"left","SHINEd_horse.jpg","congruent","n",502.697126,"f","f","left","(148, 362)",269,1,502.182597528333,-138.846447824346," 3688.12",110,2,0,0
"17",76,"left","SHINEd_Corn.jpg","congruent","n",548.821031,"f","f","left","(148, 362)",337,1,548.319191549323,-92.709853803356," 1310.22",249,4,1,1
"17",77,"right","SHINEd_skeleton-lizard.jpg","incongruent","n",673.67629,"j","f","left","(862, 362)",250,0,673.187139570313,32.1580942176342," 1229.03",185,4,1,1
"17",78,"left","SHINEd_okapi.jpg","congruent","n",476.501389,"f","f","left","(148, 362)",425,1,476.024927591303,-165.004117761376," 1517.89",151,2,0,0
"17",79,"right","SHINEd_skunk.jpg","incongruent","n",617.475885,"f","f","left","(862, 362)",290,1,617.012112612293,-24.0169327403855," 1128.84",106,4,1,1
"17",80,"right","SHINEd_Bugle.jpg","congruent","m",701.80556,"j","j","right","(862, 362)",14,1,701.354476633283,60.3254312806047," 3087.47",11,2,0,0
"17",81,"right","SHINEd_antlers.jpg","incongruent","n",778.027263,"f","f","left","(862, 362)",418,1,777.588868654273,136.559823301595,"  958.61",208,4,1,1
"17",82,"right","SHINEd_couch.jpg","congruent","m",638.521893,"j","j","right","(862, 362)",202,1,638.096187675264,-2.93285767741507,"  880.89",428,4,1,1
"17",83,"left","SHINEd_Gloves_WhiteKnit.jpg","incongruent","m",681.892698,"j","j","right","(148, 362)",197,1,681.479681696254,40.4506363435751," 1510.91",409,2,0,0
"17",84,"left","SHINEd_Bird_Parrot.jpg","congruent","n",542.4428,"f","f","left","(148, 362)",233,1,542.042472717244,-98.9865726354347," 2141.55",325,2,0,0
"17",85,"left","SHINEd_Pants_Firefighter.jpg","incongruent","m",546.623338,"j","j","right","(148, 362)",1,1,546.235699738234,-94.7933456144446,"  838.20",200,4,1,1
"17",86,"left","SHINEd_koala.jpg","congruent","n",496.167402,"f","f","left","(148, 362)",365,1,495.792452759224,-145.236592593454," 1438.92",100,3,1,1
"17",87,"right","SHINEd_PictureFrame.jpg","congruent","m",556.168531,"j","j","right","(862, 362)",222,1,555.806270780214,-85.2227745724643," 1703.45",376,2,1,NA
"17",88,"right","SHINEd_Nuts_Walnut.jpg","incongruent","n",736.540393,"f","f","left","(862, 362)",446,1,736.190821801204,95.1617764485259," 1575.06",132,4,1,1
"17",89,"left","SHINEd_Cloud.jpg","congruent","n",579.667479,"f","f","left","(148, 362)",385,1,579.330596822195,-61.698448530484," 1480.35",16,4,1,1
"17",90,"left","SHINEd_DoorKnob.jpg","incongruent","m",528.327919,"j","j","right","(148, 362)",53,1,528.003725843185,-113.025319509494,"  838.95",356,4,1,1
"17",91,"right","SHINEd_ladybug.jpg","incongruent","n",643.238841,"f","f","left","(862, 362)",238,1,642.927336864175,1.89829151149628," 1128.37",398,4,1,1
"17",92,"right","SHINEd_Boardgame_Chess.jpg","congruent","m",480.40358,"j","j","right","(862, 362)",86,1,480.104764885165,-160.924280467514," 1081.13",189,4,1,1
"17",93,"right","SHINEd_eucalyptus.jpg","incongruent","n",621.286929,"f","f","left","(862, 362)",282,1,621.000802906155,-20.0282424465234,"  880.67",204,4,1,1
"17",94,"right","SHINEd_Helmet_Bicycle.jpg","congruent","m",809.578601,"j","j","right","(862, 362)",18,1,809.305163927145,168.276118574467," 1944.44",170,4,1,1
"17",95,"left","SHINEd_Makeup_Compact.jpg","incongruent","m",909.033214,"j","j","right","(148, 362)",121,1,908.772465948136,267.743420595457,"  967.14",85,4,1,1
"17",96,"right","SHINEd_pomegrant.jpg","incongruent","n",610.392817,"f","f","left","(862, 362)",354,1,610.144757969126,-30.8842873835529," 1726.64",395,4,1,1
"17",97,"right","SHINEd_Ball_Basketball.jpg","congruent","m",648.728527,"j","j","right","(862, 362)",130,1,648.493156990116,7.46411163743718," 1045.93",362,4,0,0
"17",98,"right","SHINEd_mushroom_other.jpg","incongruent","n",605.30592,"f","f","left","(862, 362)",426,1,605.083239011106,-35.9458063415726," 1084.68",435,3,0,0
"17",99,"right","SHINEd_Car_Vintage.jpg","congruent","m",496.846415,"j","j","right","(862, 362)",186,1,496.636423032096,-144.392622320583," 2095.31",424,3,0,0
"17",100,"right","SHINEd_wheat_stock.jpg","incongruent","n",549.198621,"f","f","left","(862, 362)",358,1,549.001318053086,-92.0277272995924," 1317.60",101,4,1,1
"17",101,"left","SHINEd_DentalFloss.jpg","incongruent","m",465.90781,"j","j","right","(148, 362)",117,1,465.723196074076,-175.305849278602," 1990.67",148,2,1,NA
"17",102,"right","SHINEd_Flashlight.jpg","congruent","m",558.646451,"j","j","right","(862, 362)",98,1,558.474526095066,-82.5545192576121,"  975.21",214,3,0,0
"17",103,"right","SHINEd_spinach.jpg","incongruent","n",499.780715,"f","f","left","(862, 362)",266,1,499.621479116057,-141.407566236622," 1214.66",382,2,0,0
"17",104,"left","SHINEd_soil.jpg","congruent","n",672.887113,"j","f","left","(148, 362)",289,0,672.740566137047,31.7115207843682," 1263.36",241,4,1,1
"17",105,"left","SHINEd_Snail.jpg","congruent","n",604.217168,"f","f","left","(148, 362)",241,1,604.083310158037,-36.9457351946416," 1551.43",192,4,1,1
"17",106,"right","SHINEd_Feet.jpg","incongruent","n",561.264672,"j","f","left","(862, 362)",310,0,561.143503179027,-79.8855421736514," 1496.38",37,4,1,1
"17",107,"left","SHINEd_Branch.jpg","congruent","n",725.992197,"j","f","left","(148, 362)",333,0,725.883717200017,84.8546718473387," 1014.39",345,4,1,1
"17",108,"right","SHINEd_red_Cabbage.jpg","incongruent","n",721.45537,"f","f","left","(862, 362)",230,1,721.359579221007,80.3305338683289," 1140.14",449,4,1,1
"17",109,"right","SHINEd_Bathtub.jpg","congruent","m",627.475975,"j","j","right","(862, 362)",58,1,627.392873241998,-13.6361721106811," 1088.70",116,4,1,1
"17",110,"right","SHINEd_Dog_Bulldog.jpg","incongruent","n",546.026721,"f","f","left","(862, 362)",326,1,545.956308262988,-95.0727370896909,"  989.01",40,4,1,1
"17",111,"right","SHINEd_Bucket_Rusty.jpg","congruent","m",733.85464,"j","j","right","(862, 362)",34,1,733.796916283978,92.7678709312993," 1064.51",404,4,1,1
"17",112,"right","SHINEd_Currants.jpg","incongruent","n",705.007265,"f","f","left","(862, 362)",254,1,704.962230304968,63.9331849522894," 7077.94",147,1,1,NA
"17",113,"left","SHINEd_Leek.jpg","congruent","n",655.458495,"f","f","left","(148, 362)",357,1,655.426149325958,14.3971039732795," 1901.71",137,4,1,1
"17",114,"left","SHINEd_mosquito.jpg","congruent","n",650.677951,"f","f","left","(148, 362)",393,1,650.658294346948,9.62924899426974," 1000.44",58,4,1,1
"17",115,"left","SHINEd_Bowl_Wooden.jpg","incongruent","m",525.688172,"j","j","right","(148, 362)",141,1,525.681204367939,-115.34784098474," 1318.57",194,4,1,1
"17",116,"right","SHINEd_Beater_Electric.jpg","congruent","m",915.159877,"j","j","right","(862, 362)",42,1,915.165598388929,274.13655303625,"10660.85",187,2,0,0
"17",117,"left","SHINEd_Jetski.jpg","incongruent","m",775.645109,"j","j","right","(148, 362)",181,1,775.663519409919,134.63447405724," 1249.22",127,4,1,1
"17",118,"left","SHINEd_dragonfruit.jpg","congruent","n",579.501305,"f","f","left","(148, 362)",437,1,579.532404430909,-61.4966409217697,"  899.56",456,4,1,1
"17",119,"right","SHINEd_Cat.jpg","incongruent","n",601.364358,"f","f","left","(862, 362)",362,1,601.408146451899,-39.6208989007795," 1318.94",420,3,1,1
"17",120,"right","SHINEd_Fryingpan.jpg","congruent","m",613.873968,"j","j","right","(862, 362)",158,1,613.930445472889,-27.0985998797894," 1589.96",256,3,1,1
"17",121,"right","SHINEd_Gecko.jpg","incongruent","n",632.312727,"f","f","left","(862, 362)",370,1,632.381893493879,-8.64715185879923," 1014.25",338,4,1,1
"17",122,"left","SHINEd_red_panda.jpg","congruent","n",612.559349,"f","f","left","(148, 362)",273,1,612.64120451487,-28.3878408378091,"  934.82",393,4,1,1
"17",123,"left","SHINEd_Cabinet_Display.jpg","incongruent","m",512.434689,"j","j","right","(148, 362)",205,1,512.52923353586,-128.499811816819,"  825.26",32,4,1,1
"17",124,"left","SHINEd_Drum_Bongos.jpg","incongruent","m",708.442839,"j","j","right","(148, 362)",9,1,708.55007255685,67.5210272041713,"  973.74",150,4,1,1
"17",125,"left","SHINEd_goldenberry.jpg","congruent","n",553.350578,"f","f","left","(148, 362)",397,1,553.47050057784,-87.5585447748386," 4099.54",283,2,0,0
"17",126,"right","SHINEd_Tomato.jpg","incongruent","n",645.00692,"f","f","left","(862, 362)",450,1,645.13953159883,4.11048624615156," 1309.50",84,4,1,1
"17",127,"left","SHINEd_Dog_ChowChow.jpg","congruent","n",536.059323,"f","f","left","(148, 362)",369,1,536.20462361982,-104.824421732858," 1087.39",278,4,1,1
"17",128,"left","SHINEd_Pacifier.jpg","incongruent","m",588.610187,"j","j","right","(148, 362)",81,1,588.76817664081,-52.2608687118682," 1782.77",153,4,1,1
"17",129,"right","SHINEd_Slide.jpg","congruent","m",585.392308,"j","j","right","(862, 362)",82,1,585.562986661801,-55.4660586908781," 1101.85",24,4,1,1
"17",130,"left","SHINEd_Knife_Camping.jpg","incongruent","m",677.098566,"j","j","right","(148, 362)",37,1,677.281933682791,36.2528883301121," 1102.78",289,4,1,1
"17",131,"right","SHINEd_Clarinet.jpg","congruent","m",713.634095,"j","j","right","(862, 362)",6,1,713.830151703781,72.8011063511023," 1038.03",232,2,0,0
"17",132,"left","SHINEd_platypus.jpg","congruent","n",748.074793,"j","f","left","(148, 362)",293,0,748.283538724771,107.254493372092," 1647.92",75,2,0,0
"17",133,"right","SHINEd_peacockfeather.jpg","incongruent","n",602.093098,"f","f","left","(862, 362)",382,1,602.314532745761,-38.7145126069174,"  926.16",427,4,1,1
"17",134,"right","SHINEd_PencilSharpener.jpg","congruent","m",516.714878,"j","j","right","(862, 362)",74,1,516.949001766751,-124.080043585927," 1223.44",39,4,1,1
"17",135,"right","SHINEd_volcano copy.jpg","incongruent","n",712.961193,"j","f","left","(862, 362)",234,0,713.208005787742,72.1789604350628," 2022.69",134,4,1,1
"17",136,"left","SHINEd_Kettle.jpg","incongruent","m",659.794781,"j","j","right","(148, 362)",157,1,660.054282808732,19.025237456053," 1304.37",270,3,0,0
"17",137,"right","SHINEd_Clip_Paper.jpg","congruent","m",752.310933,"j","j","right","(862, 362)",66,1,752.583123829722,111.554078477043," 1269.77",311,4,1,1
"17",138,"left","SHINEd_Turtle.jpg","congruent","n",718.328959,"f","f","left","(148, 362)",305,1,718.613838850712,77.5847934980334," 2054.87",93,3,1,1
"17",139,"left","SHINEd_HotWaterBottle.jpg","incongruent","m",576.568662,"j","j","right","(148, 362)",113,1,576.866230871702,-64.1628144809765," 1190.46",336,4,1,1
"17",140,"right","SHINEd_Swing_Child.jpg","congruent","m",677.343557,"j","j","right","(862, 362)",166,1,677.653814892692,36.6247695400136," 1360.19",163,4,1,1
"17",141,"right","SHINEd_Pumpkin.jpg","incongruent","n",616.939069,"f","f","left","(862, 362)",294,1,617.262015913682,-23.7670294389962," 1270.97",219,3,0,0
"17",142,"left","SHINEd_cottonplant.jpg","congruent","n",781.036165,"f","f","left","(148, 362)",297,1,781.371800934672,140.342755581994," 4199.67",315,1,0,0
"17",143,"right","SHINEd_RamAnimal.jpg","incongruent","n",871.471431,"f","f","left","(862, 362)",454,1,871.819755955663,230.790710602984," 1614.75",15,4,1,1
"17",144,"right","SHINEd_Deodorant.jpg","congruent","m",756.509189,"j","j","right","(862, 362)",118,1,756.870202976653,115.841157623974," 1103.32",442,4,1,1
"17",145,"left","SHINEd_Megaphone.jpg","incongruent","m",646.391854,"j","j","right","(148, 362)",101,1,646.765556997643,5.73651164496432," 3133.78",380,3,0,0
"17",146,"right","SHINEd_rose.jpg","incongruent","n",610.511438,"f","f","left","(862, 362)",430,1,610.897830018633,-30.1312153340455," 1167.56",213,4,1,1
"17",147,"left","SHINEd_Leaf_Clover.jpg","congruent","n",560.58732,"f","f","left","(148, 362)",449,1,560.986401039623,-80.0426443130554," 1087.40",257,4,1,1
"17",148,"left","SHINEd_Carabiner_Orange.jpg","incongruent","m",540.447439,"j","j","right","(148, 362)",29,1,540.859209060613,-100.169836292065," 4684.61",3,3,0,0
"17",149,"left","SHINEd_vanillabean copy.jpg","congruent","n",537.127583,"f","f","left","(148, 362)",329,1,537.552042081604,-103.477003271075," 2022.96",73,3,1,1
"17",150,"right","SHINEd_Calculator.jpg","congruent","m",773.49877,"j","j","right","(862, 362)",94,1,773.935918102594,132.906872749915," 1167.59",401,4,1,1
"17",151,"left","SHINEd_catcus.jpg","congruent","n",633.768367,"f","f","left","(148, 362)",313,1,634.218204123584,-6.81084122909474,"  989.74",364,4,0,0
"17",152,"left","SHINEd_Vest.jpg","incongruent","m",686.679219,"j","j","right","(148, 362)",5,1,687.141745144574,46.1126997918954," 1814.71",12,4,1,1
"17",153,"left","SHINEd_Bleachers.jpg","incongruent","m",579.483928,"j","j","right","(148, 362)",133,1,579.959143165564,-61.0699021871145," 1286.02",354,3,0,0
"17",154,"right","SHINEd_Weights_Dumbells.jpg","congruent","m",888.087023,"j","j","right","(862, 362)",22,1,888.574927186554,247.545881833876,"  796.81",439,4,1,1
"17",155,"right","SHINEd_CasketOpen.jpg","congruent","m",733.338876,"j","j","right","(862, 362)",218,1,733.839469207545,92.8104238548659,"  942.31",209,4,1,1
"17",156,"left","SHINEd_Carrot.jpg","congruent","n",595.225657,"f","f","left","(148, 362)",281,1,595.738939228535,-45.290106124144," 5390.18",334,2,0,0
"17",157,"left","SHINEd_Wheel_Steering.jpg","incongruent","m",461.522349,"j","j","right","(148, 362)",185,1,462.048320249525,-178.980725103154," 4190.91",149,1,0,0
"17",158,"right","SHINEd_Cantaloupe.jpg","incongruent","n",763.041041,"f","f","left","(862, 362)",338,1,763.579701270515,122.550655917836," 1519.92",268,4,1,1
"17",159,"right","SHINEd_Bicycle_Kids.jpg","congruent","m",559.546698,"j","j","right","(862, 362)",26,1,560.098047291505,-80.9309980611736," 1215.24",291,4,1,1
"17",160,"left","SHINEd_WatermelonSlice.jpg","congruent","n",540.027252,"f","f","left","(148, 362)",325,1,540.591290312495,-100.437755040183,"  951.11",292,4,1,1
"17",161,"left","SHINEd_Bottle_Blue.jpg","incongruent","m",520.242805,"j","j","right","(148, 362)",217,1,520.819532333485,-120.209513019193," 3071.48",267,3,0,0
"17",162,"right","SHINEd_Door_Green.jpg","congruent","m",619.223035,"j","j","right","(862, 362)",106,1,619.812451354475,-21.2165939982031,"  846.55",348,4,1,1
"17",163,"left","SHINEd_Skates.jpg","incongruent","m",631.783173,"j","j","right","(148, 362)",125,1,632.385278375466,-8.64376697721293," 1439.03",307,3,0,0
"17",164,"right","SHINEd_ElectricOutlet.jpg","congruent","m",627.041484,"j","j","right","(862, 362)",102,1,627.656278396456,-13.3727669562228,"  837.73",228,4,1,1
"17",165,"left","SHINEd_FlipFlop_PairBlue.jpg","incongruent","m",583.957899,"j","j","right","(148, 362)",153,1,584.585382417446,-56.4436629352327," 2431.36",290,3,1,1
"17",166,"left","SHINEd_Chair_High.jpg","incongruent","m",524.689007,"j","j","right","(148, 362)",209,1,525.329179438436,-115.699865914243," 3694.80",277,4,1,1
"17",167,"left","SHINEd_Oyster.jpg","congruent","n",633.598108,"f","f","left","(148, 362)",433,1,634.250969459426,-6.77807589325234," 2168.05",96,4,1,1
"17",168,"right","SHINEd_purple_yam.jpg","incongruent","n",676.400129,"f","f","left","(862, 362)",442,1,677.065679480416,36.0366341277378," 1197.97",340,4,1,1
"17",169,"left","SHINEd_Leg.jpg","congruent","n",824.451444,"f","f","left","(148, 362)",405,1,825.129683501407,184.100638148728," 1319.70",180,4,1,1
"17",170,"right","SHINEd_LawnMower.jpg","congruent","m",812.201849,"j","j","right","(862, 362)",46,1,812.892777522397,171.863732169718," 1190.68",104,4,1,1
"17",171,"right","SHINEd_Boot_Rain.jpg","congruent","m",849.949606,"j","j","right","(862, 362)",150,1,850.653223543387,209.624178190708," 2158.89",269,4,1,1
"17",172,"right","SHINEd_Cranberry.jpg","incongruent","n",677.4726,"f","f","left","(862, 362)",398,1,678.188906564377,37.1598612116984," 1836.33",282,3,1,1
"17",173,"right","SHINEd_USBKey.jpg","congruent","m",569.411819,"j","j","right","(862, 362)",90,1,570.140814585367,-70.8882307673114," 1062.64",60,4,1,1
"17",174,"right","SHINEd_Fruit_Orange.jpg","incongruent","n",589.855007,"f","f","left","(862, 362)",302,1,590.596691606357,-50.4323537463213," 2735.35",254,3,1,1
"17",175,"right","SHINEd_MobilityScooter.jpg","congruent","m",611.449906,"j","j","right","(862, 362)",182,1,612.204279627348,-28.8247657253311," 1413.40",286,4,1,1
"17",176,"left","SHINEd_Gorilla.jpg","congruent","n",560.192526,"f","f","left","(148, 362)",285,1,560.959588648338,-80.069456704341," 1387.60",451,4,1,1
"17",177,"left","SHINEd_Hat_Baseball.jpg","incongruent","m",814.874706,"j","j","right","(148, 362)",189,1,815.654457669328,174.625412316649," 2381.97",212,4,1,1
"17",178,"right","SHINEd_Drill.jpg","congruent","m",674.591886,"j","j","right","(862, 362)",30,1,675.384326690318,34.3552813376393," 1270.84",243,4,1,1
"17",179,"left","SHINEd_Binder.jpg","incongruent","m",671.028868,"j","j","right","(148, 362)",65,1,671.833997711308,30.8049523586294," 1023.71",230,4,1,1
"17",180,"right","SHINEd_Teapot.jpg","congruent","m",834.210033,"j","j","right","(862, 362)",214,1,835.027851732298,193.99880637962,"  902.22",231,4,1,1
"17",181,"right","SHINEd_HairClip.jpg","congruent","m",579.962515,"j","j","right","(862, 362)",194,1,580.793022753288,-60.2360225993902," 1023.70",169,4,1,1
"17",182,"left","SHINEd_Boat_Colourful.jpg","incongruent","m",NA,"miss","j","right","(148, 362)",173,0,NA,NA," 1086.33",350,4,1,1
"17",183,"left","SHINEd_white_strawberries.jpg","congruent","n",508.632437,"f","f","left","(148, 362)",417,1,509.488322795269,-131.54072255741," 1582.57",25,4,1,1
"17",184,"left","SHINEd_BowlingPin.jpg","incongruent","m",687.953315,"j","j","right","(148, 362)",25,1,688.821889816259,47.7928444635802," 1496.03",306,3,0,0
"17",185,"right","SHINEd_Mask_HockeyGoalie.jpg","congruent","m",700.727034,"j","j","right","(862, 362)",126,1,701.608297837249,60.5792524845703," 1148.02",326,4,1,1
"17",186,"left","SHINEd_Clock_Radio.jpg","incongruent","m",680.892893,"j","j","right","(148, 362)",93,1,681.786845858239,40.7578005055604," 1151.44",240,4,1,1
"17",187,"left","SHINEd_orchid.jpg","congruent","n",550.153033,"f","f","left","(148, 362)",261,1,551.059674879229,-89.9693704734493," 1135.35",235,4,0,0
"17",188,"left","SHINEd_BusStop.jpg","incongruent","m",514.681976,"j","j","right","(148, 362)",145,1,515.601306900219,-125.427738452459,"  911.98",273,4,1,1
"17",189,"left","SHINEd_Switch_LightWhite.jpg","incongruent","m",536.226807,"j","j","right","(148, 362)",57,1,537.15882692121,-103.870218431469,"  766.30",130,4,1,1
"17",190,"left","SHINEd_pickle.jpg","congruent","n",571.7452,"f","f","left","(148, 362)",373,1,572.6899089422,-68.339136410479," 1463.33",313,4,1,1
"17",191,"left","SHINEd_brusselsprouts.jpg","congruent","n",616.606693,"f","f","left","(148, 362)",265,1,617.56409096319,-23.4649543894888,"  910.40",205,4,1,1
"17",192,"left","SHINEd_Mattress.jpg","incongruent","m",573.002102,"j","j","right","(148, 362)",49,1,573.97218898418,-67.0568563684986," 1655.66",114,4,1,1
"17",193,"right","SHINEd_manatee.jpg","incongruent","n",681.670682,"f","f","left","(862, 362)",342,1,682.65345800517,41.6244126524916," 1655.38",146,4,1,1
"17",194,"left","SHINEd_mizuna.jpg","congruent","n",774.000871,"f","f","left","(148, 362)",429,1,774.99633602616,133.967290673482,"  966.25",351,4,1,1
"17",195,"right","SHINEd_SkullDeer.jpg","incongruent","n",664.985927,"j","f","left","(862, 362)",278,0,665.99408104715,24.9650356944718,"  847.75",297,4,1,1
"17",196,"right","SHINEd_LightHouse.jpg","congruent","m",716.583233,"j","j","right","(862, 362)",146,1,717.604076068141,76.5750307154619," 1078.53",252,4,1,1
"17",197,"left","SHINEd_Mango.jpg","congruent","n",643.117836,"f","f","left","(148, 362)",277,1,644.151368089131,3.12232273645212," 2822.30",182,2,1,NA
"17",198,"left","SHINEd_Lychee.jpg","congruent","n",526.418263,"f","f","left","(148, 362)",321,1,527.464484110121,-113.564561242558,"  943.34",261,4,1,1
"17",199,"right","SHINEd_Bird_Pelican.jpg","incongruent","n",691.151902,"j","f","left","(862, 362)",402,0,692.210812131111,51.1817667784324," 1574.67",142,3,1,1
"17",200,"right","SHINEd_Bench_Black.jpg","congruent","m",583.314843,"j","j","right","(862, 362)",206,1,584.386442152101,-56.6426032005774," 1436.99",357,3,0,0
"17",201,"right","SHINEd_Cane_Metal.jpg","congruent","m",643.039778,"j","j","right","(862, 362)",190,1,644.124066173091,3.09502082041267," 1248.45",318,2,0,0
"17",202,"left","SHINEd_Bottle_Beer.jpg","incongruent","m",669.873841,"j","j","right","(148, 362)",213,1,670.970818194081,29.9417728414028," 1188.66",388,4,1,1
"17",203,"left","SHINEd_frog.jpg","congruent","n",538.587907,"f","f","left","(148, 362)",345,1,539.697573215072,-101.331472137607," 1326.91",453,4,1,1
"17",204,"left","SHINEd_Toad.jpg","congruent","n",519.291303,"f","f","left","(148, 362)",441,1,520.413658236062,-120.615387116617," 1327.05",5,4,1,1
"17",205,"left","SHINEd_Bells_Christmas.jpg","incongruent","m",601.740109,"j","j","right","(148, 362)",225,1,602.875153257052,-38.1538920956267,"  959.80",112,4,1,1
"17",206,"right","SHINEd_Dragonfly.jpg","incongruent","n",558.439149,"f","f","left","(862, 362)",346,1,559.586882278042,-81.4421630746365," 1152.47",145,4,1,1
"17",207,"left","SHINEd_Pineapple.jpg","congruent","n",557.138688,"f","f","left","(148, 362)",353,1,558.299110299032,-82.7299350536464," 1807.19",27,2,1,NA
"17",208,"left","SHINEd_DeepFryer.jpg","incongruent","m",537.865588,"j","j","right","(148, 362)",161,1,539.038699320022,-101.990346032656," 2039.72",174,2,1,NA
"17",209,"left","SHINEd_Mitt_Oven.jpg","incongruent","m",572.383086,"j","j","right","(148, 362)",137,1,573.568886341013,-67.460159011666," 1127.14",412,4,1,1
"17",210,"right","SHINEd_discoball.jpg","congruent","m",671.35498,"j","j","right","(862, 362)",226,1,672.553469362003,31.524424009324,"  782.41",419,4,1,1
"17",211,"left","SHINEd_Bird_Eagle.jpg","congruent","n",620.693907,"f","f","left","(148, 362)",257,1,621.905085382993,-19.1239599696858," 1949.88",133,2,0,0
"17",212,"right","SHINEd_Flamingo_Real.jpg","incongruent","n",736.440455,"f","f","left","(862, 362)",406,1,737.664322403983,96.6352770513044,"  894.52",198,4,1,1
"17",213,"right","SHINEd_Dog_CockerSpaniel.jpg","incongruent","n",564.751282,"f","f","left","(862, 362)",306,1,565.987838424973,-75.0412069277055," 2671.38",97,3,0,0
"17",214,"left","SHINEd_catfish.jpg","congruent","n",736.841921,"f","f","left","(148, 362)",361,1,738.091166445963,97.0621210932846," 1366.87",31,4,1,1
"17",215,"left","SHINEd_Crown.jpg","incongruent","m",564.942684,"j","j","right","(148, 362)",193,1,566.204618466953,-74.8244268857252,"  944.15",64,4,1,1
"17",216,"left","SHINEd_DogHouse.jpg","incongruent","m",617.886213,"j","j","right","(148, 362)",165,1,619.160836487944,-21.8682088647351," 1855.72",215,4,0,0
"17",217,"right","SHINEd_DustPan.jpg","congruent","m",582.397572,"j","j","right","(862, 362)",54,1,583.684884508934,-57.3441608437449," 1160.86",335,2,0,0
"17",218,"left","SHINEd_Dice.jpg","incongruent","m",491.794079,"j","j","right","(148, 362)",89,1,493.094080529924,-147.934964822755," 1888.71",6,4,1,1
"17",219,"right","SHINEd_brownbeans.jpg","incongruent","n",824.130526,"f","f","left","(862, 362)",366,1,825.443216550914,184.414171198235," 1368.24",77,3,1,1
"17",220,"left","SHINEd_starfruit.jpg","congruent","n",595.810818,"f","f","left","(148, 362)",317,1,597.136197571904,-43.8928477807744," 1648.43",227,3,0,0
"17",221,"left","SHINEd_Quartz.jpg","congruent","n",638.895359,"f","f","left","(148, 362)",401,1,640.233427592894,-0.795617759784321," 1128.00",255,4,1,1
"17",222,"right","SHINEd_TissueBox.jpg","congruent","m",802.580118,"j","j","right","(862, 362)",50,1,803.930875613884,162.901830261206," 1479.29",55,4,1,1
"17",223,"left","SHINEd_Tree_Fir.jpg","congruent","n",560.410603,"f","f","left","(148, 362)",229,1,561.774049634875,-79.254995717804," 1608.32",312,3,0,0
"17",224,"right","SHINEd_Seashell_BayScallop.jpg","incongruent","n",707.666204,"f","f","left","(862, 362)",270,1,709.042339655865,68.0132943031861,"  872.05",201,4,1,1
"17",225,"right","SHINEd_Butterfly.jpg","incongruent","n",664.250837,"f","f","left","(862, 362)",318,1,665.639661676855,24.6106163241763," 2340.58",9,3,1,1
"17",226,"right","SHINEd_Glove_Rubber.jpg","congruent","m",877.919391,"j","j","right","(862, 362)",138,1,879.320904697845,238.291859345166," 1359.12",272,3,0,0
"17",227,"left","SHINEd_ChainRusty.jpg","incongruent","m",672.52497,"j","j","right","(148, 362)",21,1,673.939172718835,32.9101273661566," 1168.30",373,4,1,1
"17",228,"right","SHINEd_grasshopper.jpg","incongruent","n",598.084235,"f","f","left","(862, 362)",286,1,599.511126739825,-41.5179186128532,"  734.09",416,4,1,1
