"participant","trial_index","screenposition","stimulus","trialtype","classifyenc","rt","response","responsecorrect","responsecorrect_side","screenlocation","stimnum","acc","rtResidual","rtResidualC","rt_rec","trialno_rec","ratingConfidence","acc_rec","memoryHits.hc"
"23",1,"right","SHINEd_Chimpanzee.jpg","incongruent","n",937.501983,"f","f","left","(862, 362)",255,1,890.892104310973,212.134584764244," 1703.89",273,3,0,0
"23",2,"right","SHINEd_Razor.jpg","congruent","m",829.885985,"j","j","right","(862, 362)",119,1,783.679393984903,104.921874438174," 4343.11",352,4,1,1
"23",3,"right","SHINEd_KeyHook_Empty.jpg","congruent","m",912.980654,"j","j","right","(862, 362)",223,1,867.177350658839,188.41983111211," 1039.76",81,4,1,1
"23",4,"right","SHINEd_Flower_Daisy.jpg","incongruent","n",701.663859,"f","f","left","(862, 362)",351,1,656.263843332775,-22.4936762139544,"  735.22",163,4,1,1
"23",5,"right","SHINEd_Toolbox_RedOpen.jpg","congruent","m",800.981773,"j","j","right","(862, 362)",39,1,755.98504500671,77.2275254599813," 1454.37",434,4,1,1
"23",6,"right","SHINEd_Seahorse.jpg","incongruent","n",660.790711,"f","f","left","(862, 362)",347,1,616.197270680646,-62.5602488660829," 1364.72",112,4,1,1
"23",7,"left","SHINEd_Dill.jpg","congruent","n",696.132007,"f","f","left","(148, 362)",256,1,651.941854354582,-26.8156651921471," 2465.96",5,4,1,1
"23",8,"left","SHINEd_Hammock.jpg","incongruent","m",675.772871,"j","j","right","(148, 362)",208,1,631.986006028518,-46.7715135182114," 1480.65",88,4,1,1
"23",9,"left","SHINEd_mint.jpg","congruent","n",680.11623,"f","f","left","(148, 362)",360,1,636.732652702453,-42.0248668442757," 1318.93",159,4,1,1
"23",10,"right","SHINEd_Ferret.jpg","incongruent","n",781.887501,"f","f","left","(862, 362)",239,1,738.907211376389,60.1496918296602," 2136.11",186,3,1,1
"23",11,"right","SHINEd_Staircase_Curving.jpg","congruent","m",705.767846,"j","j","right","(862, 362)",115,1,663.190844050325,-15.5666754964042," 2040.66",354,4,1,1
"23",12,"right","SHINEd_feather.jpg","incongruent","n",NA,"miss","f","left","(862, 362)",415,0,NA,NA," 1420.89",282,4,1,1
"23",13,"right","SHINEd_Box_GiftTopView.jpg","congruent","m",NA,"miss","j","right","(862, 362)",219,0,NA,NA," 3243.50",410,4,1,1
"23",14,"left","SHINEd_Oneholepunch.jpg","incongruent","m",735.460035,"j","j","right","(148, 362)",76,1,694.092896072132,15.3353765254031,"  862.48",223,4,1,1
"23",15,"right","SHINEd_Bus_School.jpg","congruent","m",796.69451,"j","j","right","(862, 362)",171,1,755.730658746068,76.9731391993389," 1029.28",320,4,1,1
"23",16,"left","SHINEd_Card_TwoSpade.jpg","incongruent","m",729.478428,"j","j","right","(148, 362)",88,1,688.917864420004,10.1603448732746," 1056.19",416,4,1,1
"23",17,"right","SHINEd_MannequinBust.jpg","congruent","m",655.394829,"j","j","right","(862, 362)",103,1,615.237553093939,-63.5199664527896," 1230.82",430,4,1,1
"23",18,"right","SHINEd_moth.jpg","incongruent","n",796.466422,"f","f","left","(862, 362)",427,1,756.712433767875,77.9549142211461," 1703.99",269,4,1,1
"23",19,"left","SHINEd_Tape_Scotch.jpg","incongruent","m",832.66981,"j","j","right","(148, 362)",228,1,793.319109441811,114.561589895082," 1255.05",275,4,1,1
"23",20,"left","SHINEd_PassionFruit.jpg","congruent","n",NA,"miss","f","left","(148, 362)",452,0,NA,NA," 1534.84",76,4,1,1
"23",21,"right","SHINEd_Iguana.jpg","incongruent","n",674.001884,"f","f","left","(862, 362)",387,1,635.457758789682,-43.2997607570466," 1590.51",194,4,1,1
"23",22,"left","SHINEd_alarm.jpg","incongruent","m",630.291511,"j","j","right","(148, 362)",96,1,592.150673463618,-86.6068460831108," 1141.58",59,4,1,1
"23",23,"right","SHINEd_LightBulb_White.jpg","congruent","m",762.059275,"j","j","right","(862, 362)",47,1,724.321725137554,45.5642055908249," 1061.51",114,3,1,1
"23",24,"right","SHINEd_OnionRed.jpg","incongruent","n",781.259082,"f","f","left","(862, 362)",383,1,743.92481981149,65.1673002647607," 1622.14",242,4,1,1
"23",25,"right","SHINEd_Basket_Plastic.jpg","congruent","m",944.848181,"j","j","right","(862, 362)",211,1,907.917206485425,229.159686938696," 1103.91",300,4,1,1
"23",26,"left","SHINEd_Dart.jpg","incongruent","m",821.246806,"j","j","right","(148, 362)",20,1,784.719119159361,105.961599612632," 1168.40",280,4,1,1
"23",27,"right","SHINEd_Playard.jpg","congruent","m",NA,"miss","j","right","(862, 362)",59,0,NA,NA," 3031.37",37,3,1,1
"23",28,"left","SHINEd_vulture.jpg","congruent","n",533.292559,"f","f","left","(148, 362)",436,1,497.571447507233,-181.186072039496," 2485.59",442,3,1,1
"23",29,"right","SHINEd_dates_fresh.jpg","incongruent","n",961.621615,"j","f","left","(862, 362)",319,0,926.303791181168,247.546271634439," 2057.99",70,3,1,1
"23",30,"right","SHINEd_Fence_Wooden.jpg","congruent","m",597.043899,"j","j","right","(862, 362)",163,1,562.129362855104,-116.628156691625," 1112.70",56,4,1,1
"23",31,"left","SHINEd_ScannerShoplifting.jpg","incongruent","m",833.321129,"j","j","right","(148, 362)",100,1,798.80988052904,120.052360982311," 1182.70",415,4,1,1
"23",32,"left","SHINEd_SnowGlobe.jpg","incongruent","m",629.394254,"j","j","right","(148, 362)",84,1,595.286293202976,-83.4712263437533," 1256.68",38,4,1,1
"23",33,"left","SHINEd_maggotts.jpg","congruent","n",721.3774,"f","f","left","(148, 362)",392,1,687.672726876911,8.91520733018241," 1391.36",161,4,1,1
"23",34,"left","SHINEd_Bus_DoubleDecker.jpg","incongruent","m",565.559303,"j","j","right","(148, 362)",184,1,532.257917550847,-146.499601995882,"  926.82",452,3,1,1
"23",35,"left","SHINEd_HorseshoeCrab.jpg","congruent","n",673.671208,"f","f","left","(148, 362)",260,1,640.773110224783,-37.9844093219461," 2272.94",155,2,0,0
"23",36,"right","SHINEd_Olives.jpg","incongruent","n",613.780884,"f","f","left","(862, 362)",419,1,581.286073898719,-97.4714456480103," 1839.07",233,3,1,1
"23",37,"left","SHINEd_Hazelnut.jpg","congruent","n",824.609256,"f","f","left","(148, 362)",252,1,792.517733572654,113.760214025925," 3414.34",425,3,1,1
"23",38,"left","SHINEd_Bib.jpg","incongruent","m",790.775103,"j","j","right","(148, 362)",136,1,759.08686824659,80.3293486998612," 1265.55",431,4,1,1
"23",39,"right","SHINEd_Snowboard.jpg","congruent","m",786.504268,"j","j","right","(862, 362)",23,1,755.219320920526,76.461801373797," 1922.05",99,4,1,1
"23",40,"right","SHINEd_Shark_GreatWhite.jpg","incongruent","n",661.673021,"f","f","left","(862, 362)",287,1,630.791361594462,-47.9661579522673," 1168.17",341,4,1,1
"23",41,"right","SHINEd_MousepadAndMouse.jpg","congruent","m",682.205306,"j","j","right","(862, 362)",99,1,651.726934268397,-27.0305852783316," 1393.11",310,4,1,1
"23",42,"right","SHINEd_Potato.jpg","incongruent","n",628.382848,"f","f","left","(862, 362)",423,1,598.307763942333,-80.4497556043958," 1224.62",108,4,1,1
"23",43,"right","SHINEd_FireHydrant.jpg","congruent","m",737.254681,"j","j","right","(862, 362)",167,1,707.582884616269,28.82536506954," 1095.13",276,4,1,1
"23",44,"right","SHINEd_Stingray.jpg","incongruent","n",725.872365,"f","f","left","(862, 362)",315,1,696.603856290205,17.8463367434757," 1099.92",342,4,1,1
"23",45,"left","SHINEd_DrainPlug.jpg","incongruent","m",881.480287,"j","j","right","(148, 362)",140,1,852.615065964141,173.857546417411," 1317.77",162,4,1,1
"23",46,"left","SHINEd_Banana.jpg","congruent","n",NA,"miss","f","left","(148, 362)",376,0,NA,NA," 2989.32",313,4,1,1
"23",47,"right","SHINEd_Sand.jpg","incongruent","n",906.070584,"f","f","left","(862, 362)",279,1,878.011938312012,199.254418765283," 1120.09",268,4,1,1
"23",48,"left","SHINEd_Bolt.jpg","incongruent","m",734.766314,"j","j","right","(148, 362)",32,1,707.110955985948,28.3534364392187," 1477.71",325,4,1,1
"23",49,"left","SHINEd_raspberry.jpg","congruent","n",682.628347,"f","f","left","(148, 362)",456,1,655.376276659884,-23.3812428868455," 1998.44",278,3,1,1
"23",50,"right","SHINEd_aloe.jpg","incongruent","n",632.435595,"f","f","left","(862, 362)",299,1,605.586812333819,-73.1707072129097," 1448.06",279,3,0,0
"23",51,"left","SHINEd_alpaca_fo.jpg","congruent","n",603.613328,"f","f","left","(148, 362)",400,1,577.167833007755,-101.589686538974," 1548.84",321,4,1,1
"23",52,"left","SHINEd_blackberry.jpg","congruent","n",598.537502,"f","f","left","(148, 362)",280,1,572.495294681691,-106.262224865038," 1430.67",219,3,0,0
"23",53,"left","SHINEd_EspressoMachine.jpg","incongruent","m",540.36644,"j","j","right","(148, 362)",156,1,514.727520355626,-164.029999191102," 1366.23",371,4,1,1
"23",54,"left","SHINEd_housefly.jpg","congruent","n",599.755685,"f","f","left","(148, 362)",420,1,574.520053029562,-104.237466517167," 1803.43",412,3,1,1
"23",55,"right","SHINEd_bat.jpg","incongruent","n",747.92938,"f","f","left","(862, 362)",403,1,723.097035703498,44.3395161567691," 1095.73",156,3,1,1
"23",56,"right","SHINEd_sanddollar.jpg","incongruent","n",927.939608,"j","f","left","(862, 362)",295,0,903.510551377434,224.753031830705," 1249.94",437,4,1,1
"23",57,"left","SHINEd_Clam.jpg","congruent","n",876.717774,"f","f","left","(148, 362)",340,1,852.69200505137,173.93448550464," 1470.34",297,4,1,1
"23",58,"left","SHINEd_IroningBoard.jpg","incongruent","m",696.833575,"j","j","right","(148, 362)",52,1,673.211093725305,-5.54642582142372," 1166.92",317,4,1,1
"23",59,"left","SHINEd_blueberries.jpg","congruent","n",556.243292,"f","f","left","(148, 362)",232,1,533.024098399241,-145.733421147488," 2640.30",350,2,1,NA
"23",60,"right","SHINEd_sunflowers.jpg","incongruent","n",656.027367,"f","f","left","(862, 362)",395,1,633.211461073177,-45.5460584735522," 3627.53",367,3,1,1
"23",61,"right","SHINEd_Seashell_RoseMurex.jpg","incongruent","n",716.670764,"f","f","left","(862, 362)",327,1,694.258145747113,15.5006262003835," 1373.72",137,4,1,1
"23",62,"right","SHINEd_whistle.jpg","congruent","m",657.463258,"j","j","right","(862, 362)",79,1,635.453927421048,-43.3035921256807," 4186.49",101,4,1,1
"23",63,"right","SHINEd_penguin.jpg","incongruent","n",644.668889,"f","f","left","(862, 362)",307,1,623.062846094984,-55.6946734517449," 1219.98",145,4,1,1
"23",64,"right","SHINEd_Barbecue_Gas.jpg","congruent","m",616.716868,"j","j","right","(862, 362)",159,1,595.51411276892,-83.2434067778092," 1196.12",332,4,1,1
"23",65,"left","SHINEd_Clothespin_Red.jpg","incongruent","m",931.758906,"j","j","right","(148, 362)",60,1,910.959438442856,232.201918896127," 1716.80",347,2,1,NA
"23",66,"left","SHINEd_Bird_CanadianGoose.jpg","congruent","n",737.751406,"f","f","left","(148, 362)",388,1,717.355226116791,38.5977065700623," 2069.58",229,3,1,1
"23",67,"left","SHINEd_Boombox.jpg","incongruent","m",693.404901,"j","j","right","(148, 362)",92,1,673.412008790727,-5.34551075600194," 2279.09",449,3,1,1
"23",68,"left","SHINEd_Pitcher.jpg","incongruent","m",697.647992,"j","j","right","(148, 362)",56,1,678.058387464663,-0.699132082066136," 1452.72",47,4,1,1
"23",69,"left","SHINEd_anteater.jpg","congruent","n",660.78624,"j","f","left","(148, 362)",368,0,641.599923138599,-37.1575964081304," 5676.72",398,3,0,0
"23",70,"left","SHINEd_Earrings_Dangling.jpg","incongruent","m",761.942075,"f","j","right","(148, 362)",196,0,743.159045812534,64.4015262658054," 1457.54",209,4,1,1
"23",71,"left","SHINEd_Plum.jpg","congruent","n",NA,"miss","f","left","(148, 362)",244,0,NA,NA," 1511.47",231,3,1,1
"23",72,"left","SHINEd_PencilCase.jpg","incongruent","m",617.428985,"j","j","right","(148, 362)",68,1,599.452531160406,-79.3049883863232," 3495.99",441,2,1,NA
"23",73,"left","SHINEd_dove.jpg","congruent","n",575.282161,"f","f","left","(148, 362)",308,1,557.708994834342,-121.048524712387," 4215.47",73,3,0,0
"23",74,"right","SHINEd_puffer-fish.jpg","incongruent","n",713.805117,"f","f","left","(862, 362)",339,1,696.635238508277,17.8777189615483," 1564.63",440,3,1,1
"23",75,"left","SHINEd_Lobster.jpg","congruent","n",574.582012,"f","f","left","(148, 362)",288,1,557.815421182213,-120.942098364516," 1279.05",326,4,1,1
"23",76,"left","SHINEd_Squid_Pink.jpg","congruent","n",563.466135,"f","f","left","(148, 362)",336,1,547.102831856149,-131.65468769058," 1900.49",104,4,1,1
"23",77,"left","SHINEd_Tie.jpg","incongruent","m",558.642153,"j","j","right","(148, 362)",192,1,542.682137530085,-136.075382016644," 1244.47",28,4,1,1
"23",78,"right","SHINEd_MalletJudge.jpg","congruent","m",594.877141,"j","j","right","(862, 362)",35,1,579.32041320402,-99.4371063427086," 1014.23",361,4,1,1
"23",79,"left","SHINEd_SpinningWheel.jpg","incongruent","m",606.470299,"j","j","right","(148, 362)",124,1,591.316858877956,-87.4406606687729,"  280.61",288,2,0,0
"23",80,"left","SHINEd_groundhog.jpg","congruent","n",489.249201,"f","f","left","(148, 362)",404,1,474.499048551892,-204.258470994837," 2111.19",149,3,1,1
"23",81,"right","SHINEd_turkey.jpg","incongruent","n",514.463027,"j","f","left","(862, 362)",391,0,500.116162225828,-178.641357320901," 1532.83",366,3,0,0
"23",82,"left","SHINEd_Boar.jpg","congruent","n",553.782494,"f","f","left","(148, 362)",264,1,539.838916899763,-138.918602646966," 5899.81",383,2,0,0
"23",83,"right","SHINEd_tooth.jpg","incongruent","n",733.032798,"f","f","left","(862, 362)",363,1,719.492508573699,40.7349890269701," 1120.07",387,4,1,1
"23",84,"left","SHINEd_rhino.jpg","congruent","n",514.409381,"f","f","left","(148, 362)",352,1,501.272379247635,-177.485140299094," 1442.17",260,4,1,1
"23",85,"left","SHINEd_Guitar_Acoustic.jpg","incongruent","m",623.663303,"f","j","right","(148, 362)",12,0,610.929588921571,-67.8279306251583,"  972.11",356,4,1,1
"23",86,"left","SHINEd_Pig.jpg","congruent","n",700.769983,"f","f","left","(148, 362)",424,1,688.439556595506,9.68203704877741," 2048.08",324,4,1,1
"23",87,"left","SHINEd_Lion.jpg","congruent","n",526.868259,"f","f","left","(148, 362)",316,1,514.941120269442,-163.816399277287," 3358.75",150,3,1,1
"23",88,"right","SHINEd_tentacle.jpg","incongruent","n",865.45297,"f","f","left","(862, 362)",247,1,853.929118943378,175.171599396649," 1600.70",40,4,1,1
"23",89,"left","SHINEd_lorises.jpg","congruent","n",581.863013,"f","f","left","(148, 362)",428,1,570.742449617314,-108.015069929415," 1718.70",63,4,1,1
"23",90,"right","SHINEd_Eggplant.jpg","incongruent","n",NA,"miss","f","left","(862, 362)",267,0,NA,NA," 1926.18",135,3,1,1
"23",91,"right","SHINEd_Owl.jpg","incongruent","n",565.221345,"f","f","left","(862, 362)",407,1,554.907356965185,-123.850162581544," 1436.29",455,3,0,0
"23",92,"right","SHINEd_FloppyDisk.jpg","congruent","m",603.362497,"j","j","right","(862, 362)",147,1,593.451796639121,-85.3057229076081," 1096.25",338,4,1,1
"23",93,"left","SHINEd_Outhouse.jpg","incongruent","m",783.715087,"j","j","right","(148, 362)",164,1,774.207674313057,95.4501547663277," 1710.57",95,4,1,1
"23",94,"right","SHINEd_Belt.jpg","congruent","m",715.706748,"j","j","right","(862, 362)",195,1,706.602622986992,27.8451034402634," 1176.41",208,4,1,1
"23",95,"right","SHINEd_edamame.jpg","incongruent","n",655.897175,"f","f","left","(862, 362)",303,1,647.196337660928,-31.5611818858009," 1741.36",353,4,1,1
"23",96,"right","SHINEd_Fish_Swordfish.jpg","incongruent","n",579.539999,"f","f","left","(862, 362)",331,1,571.242449334864,-107.515070211865," 1205.72",346,3,0,0
"23",97,"right","SHINEd_Binoculars.jpg","congruent","m",512.815867,"j","j","right","(862, 362)",199,1,504.9216050088,-173.835914537929," 1645.85",15,3,1,1
"23",98,"right","SHINEd_Hedgehog.jpg","incongruent","n",572.244764,"f","f","left","(862, 362)",243,1,564.753789682735,-114.003729863994," 1560.24",373,3,0,0
"23",99,"left","SHINEd_TigerWhite.jpg","congruent","n",575.465892,"f","f","left","(148, 362)",440,1,568.378205356671,-110.379314190058," 3367.79",3,4,1,1
"23",100,"right","SHINEd_white sesame.jpg","incongruent","n",933.180318,"f","f","left","(862, 362)",371,1,926.495919030607,247.738399483878," 2910.30",78,4,1,1
"23",101,"left","SHINEd_GasStation.jpg","incongruent","m",631.661611,"j","j","right","(148, 362)",168,1,625.380499704543,-53.3770198421863,"  909.05",118,4,1,1
"23",102,"left","SHINEd_Celery.jpg","congruent","n",757.312711,"j","f","left","(148, 362)",272,0,751.434887378478,72.6773678317495," 3007.71",25,4,1,1
"23",103,"right","SHINEd_pine-cone-.jpg","incongruent","n",888.986681,"f","f","left","(862, 362)",399,1,883.512145052414,204.754625505685," 1792.41",368,4,1,1
"23",104,"left","SHINEd_Pepper_Green.jpg","congruent","n",684.589285,"j","f","left","(148, 362)",372,0,679.51803672635,0.76051717962096," 1360.44",91,4,1,1
"23",105,"right","SHINEd_KiddiePool.jpg","congruent","m",NA,"miss","j","right","(862, 362)",87,0,NA,NA," 3596.39",75,4,1,1
"23",106,"left","SHINEd_Fridge.jpg","incongruent","m",NA,"miss","j","right","(148, 362)",44,0,NA,NA," 1339.85",19,4,1,1
"23",107,"left","SHINEd_gazelle.jpg","congruent","n",649.899355,"f","f","left","(148, 362)",268,1,646.037969748157,-32.7195497985718," 2026.12",234,3,0,0
"23",108,"left","SHINEd_LifeJacket_BlueYellow.jpg","incongruent","m",726.623087,"j","j","right","(148, 362)",16,1,723.164989422093,44.407469875364," 1886.81",251,3,0,0
"23",109,"right","SHINEd_KitchenCloth.jpg","congruent","m",NA,"miss","j","right","(862, 362)",143,0,NA,NA," 1302.94",450,3,0,0
"23",110,"left","SHINEd_Bottle_Bleach.jpg","incongruent","m",733.397101,"j","j","right","(148, 362)",212,1,730.745578769964,51.9880592232355," 1237.25",217,4,1,1
"23",111,"left","SHINEd_Squash_Butternut.jpg","congruent","n",602.549968,"f","f","left","(148, 362)",444,1,600.3017334439,-78.4557861028287," 1080.14",336,4,1,1
"23",112,"right","SHINEd_Cauliflower.jpg","incongruent","n",727.442659,"f","f","left","(862, 362)",291,1,725.597712117836,46.840192571107," 1189.65",385,4,1,1
"23",113,"right","SHINEd_firetruck.jpg","congruent","m",539.772179,"j","j","right","(862, 362)",179,1,538.330519791772,-140.426999754957," 3264.05",386,3,1,1
"23",114,"right","SHINEd_Tractor_Orange.jpg","congruent","m",839.796907,"f","j","right","(862, 362)",175,0,838.758535465707,160.001015918978," 5463.59",274,2,0,0
"23",115,"left","SHINEd_Cassette_Audio.jpg","incongruent","m",803.214719,"j","j","right","(148, 362)",148,1,802.579635139643,123.822115592914,"  815.66",49,4,1,1
"23",116,"left","SHINEd_Cougar.jpg","congruent","n",606.478646,"f","f","left","(148, 362)",276,1,606.246849813579,-72.51066973315," 1350.23",444,3,1,1
"23",117,"left","SHINEd_Glasses_Reading.jpg","incongruent","m",553.778297,"j","j","right","(148, 362)",200,1,553.949788487515,-124.807731059214," 1765.79",134,3,0,0
"23",118,"left","SHINEd_Pear_Yellow.jpg","congruent","n",807.626004,"f","f","left","(148, 362)",416,1,808.20078316145,129.443263614721," 6360.73",130,3,1,1
"23",119,"right","SHINEd_tamarinds.jpg","incongruent","n",643.046712,"f","f","left","(862, 362)",451,1,644.024778835386,-34.7327407113428," 3038.44",250,3,0,0
"23",120,"right","SHINEd_Cable_AudioSplitter.jpg","congruent","m",NA,"miss","j","right","(862, 362)",91,0,NA,NA," 1093.53",53,4,1,1
"23",121,"left","SHINEd_Shampoo.jpg","incongruent","m",682.531089,"j","j","right","(148, 362)",120,1,684.315731183258,5.5582116365287," 1561.04",429,4,1,1
"23",122,"left","SHINEd_chick hatch.jpg","congruent","n",702.203085,"f","f","left","(148, 362)",384,1,704.391014857193,25.6334953104645," 1414.68",296,3,1,1
"23",123,"left","SHINEd_Boots_KneeHigh.jpg","incongruent","m",539.225343,"j","j","right","(148, 362)",152,1,541.816560531129,-136.9409590156," 2107.40",115,4,1,1
"23",124,"left","SHINEd_Key_Car.jpg","incongruent","m",638.091404,"j","j","right","(148, 362)",176,1,641.085909205065,-37.671610341664," 1359.22",52,4,1,1
"23",125,"right","SHINEd_Dress_Blue.jpg","congruent","m",723.710084,"j","j","right","(862, 362)",3,1,727.107876879001,48.3503573322718," 1632.06",204,4,1,1
"23",126,"left","SHINEd_seatAirplane.jpg","incongruent","m",719.409068,"f","j","right","(148, 362)",172,0,723.210148552937,44.4526290062076," 3774.10",302,2,1,NA
"23",127,"right","SHINEd_DryRack_Dishes.jpg","congruent","m",NA,"miss","j","right","(862, 362)",135,0,NA,NA," 1513.04",12,4,1,1
"23",128,"right","SHINEd_Nuts_Peanuts.jpg","incongruent","n",633.844829,"f","f","left","(862, 362)",235,1,638.452484900808,-40.305034645921," 4863.43",26,4,1,1
"23",129,"left","SHINEd_fig.jpg","congruent","n",837.699185,"j","f","left","(148, 362)",412,0,842.710128574744,163.952609028015," 2532.69",351,2,1,NA
"23",130,"left","SHINEd_Exercise_Bike.jpg","incongruent","m",808.909735,"j","j","right","(148, 362)",24,1,814.323966248679,135.56644670195," 1426.04",89,4,1,1
"23",131,"left","SHINEd_Lettuce_GreenLeaf.jpg","congruent","n",557.660985,"f","f","left","(148, 362)",248,1,563.478503922615,-115.279015624114," 1248.08",305,3,1,1
"23",132,"right","SHINEd_Stapler_Regular.jpg","congruent","m",736.088762,"j","j","right","(862, 362)",43,1,742.309568596551,63.552049049822," 1612.04",125,2,1,NA
"23",133,"left","SHINEd_Bag_Camera.jpg","incongruent","m",828.588284,"f","j","right","(148, 362)",216,0,835.212378270487,156.454858723758," 1814.50",191,3,1,1
"23",134,"right","SHINEd_Bandage_Adhesive.jpg","congruent","m",NA,"miss","j","right","(862, 362)",107,0,NA,NA," 1647.76",166,4,1,1
"23",135,"left","SHINEd_CompassCardinal.jpg","incongruent","m",827.952219,"j","j","right","(148, 362)",40,1,835.382888618358,156.625369071629," 2350.94",421,3,1,1
"23",136,"right","SHINEd_Swan.jpg","incongruent","n",639.705526,"f","f","left","(862, 362)",443,1,647.539483292294,-31.218036254435," 1788.82",121,3,0,0
"23",137,"right","SHINEd_Cage_Bird.jpg","congruent","m",644.38662,"j","j","right","(862, 362)",123,1,652.62386496623,-26.1336545804992," 1761.35",23,4,1,1
"23",138,"left","SHINEd_bee.jpg","congruent","n",615.921632,"f","f","left","(148, 362)",380,1,624.562164640166,-54.1953549065634," 3240.77",132,3,1,1
"23",139,"left","SHINEd_HedgeShears.jpg","incongruent","m",548.682088,"j","j","right","(148, 362)",28,1,557.725908314101,-121.031611232628," 2207.32",407,2,0,0
"23",140,"left","SHINEd_Buffalo.jpg","congruent","n",521.616082,"f","f","left","(148, 362)",432,1,531.063189988037,-147.694329558692," 3905.68",100,1,0,0
"23",141,"right","SHINEd_elbow.jpg","incongruent","n",677.359375,"j","f","left","(862, 362)",263,0,687.209770661973,8.45225111524382," 1660.51",138,4,1,1
"23",142,"left","SHINEd_Cow.jpg","congruent","n",705.545471,"f","f","left","(148, 362)",320,1,715.799154335909,37.0416347891796," 2084.24",357,2,1,NA
"23",143,"right","SHINEd_Peach.jpg","incongruent","n",829.217496,"f","f","left","(862, 362)",323,1,839.874467009844,161.116947463115," 1668.30",401,3,1,1
"23",144,"right","SHINEd_Bed_Hospital.jpg","congruent","m",857.68167,"f","j","right","(862, 362)",207,0,868.74192868378,189.984409137051," 1093.91",435,4,1,1
"23",145,"right","SHINEd_goldfish.jpg","incongruent","n",606.151597,"f","f","left","(862, 362)",275,1,617.615143357716,-61.1423761890131," 1384.80",303,3,1,1
"23",146,"right","SHINEd_Crab.jpg","incongruent","n",546.188833,"f","f","left","(862, 362)",259,1,558.055667031652,-120.701852515077," 1604.89",154,2,0,0
"23",147,"right","SHINEd_CapGraduation.jpg","congruent","m",686.412422,"j","j","right","(862, 362)",187,1,698.682543705587,19.9250241588583," 1404.94",372,4,1,1
"23",148,"right","SHINEd_mapleleaf.jpg","incongruent","n",450.966564,"j","f","left","(862, 362)",335,0,463.639973379523,-215.117546167206," 1287.74",247,3,1,1
"23",149,"left","SHINEd_papaya.jpg","congruent","n",655.68342,"f","f","left","(148, 362)",292,1,668.760117053459,-9.9974024932702," 1468.31",218,4,1,1
"23",150,"left","SHINEd_Scorpion.jpg","congruent","n",547.487364,"f","f","left","(148, 362)",396,1,560.967348727395,-117.790170819334," 1172.91",227,3,0,0
"23",151,"left","SHINEd_tapir copy.jpg","congruent","n",607.638955,"f","f","left","(148, 362)",408,1,621.52222740133,-57.2352921453986," 2124.93",374,3,1,1
"23",152,"right","SHINEd_lime.jpg","incongruent","n",652.308484,"j","f","left","(862, 362)",439,0,666.595044075266,-12.1624754714629," 1671.17",202,3,1,1
"23",153,"left","SHINEd_Lighter_Yellow.jpg","incongruent","m",712.671069,"j","j","right","(148, 362)",104,1,727.360916749202,48.6033972024729," 1642.55",402,3,1,1
"23",154,"right","SHINEd_ashtray.jpg","congruent","m",838.62313,"j","j","right","(862, 362)",227,1,853.716265423138,174.958745876409," 1222.10",236,4,1,1
"23",155,"left","SHINEd_Kangaroo.jpg","congruent","n",579.412615,"f","f","left","(148, 362)",312,1,594.909038097073,-83.8484814496557," 1222.65",144,4,1,1
"23",156,"right","SHINEd_Oars.jpg","congruent","m",615.350907,"j","j","right","(862, 362)",19,1,631.250617771009,-47.5069017757199," 2537.43",21,4,1,1
"23",157,"left","SHINEd_Hat_Explorer.jpg","incongruent","m",954.707876,"j","j","right","(148, 362)",188,1,971.010874444945,292.253354898216," 1093.94",448,4,1,1
"23",158,"left","SHINEd_CinderBlock.jpg","incongruent","m",798.326753,"f","j","right","(148, 362)",108,0,815.033039118881,136.275519572152," 1591.28",45,4,1,1
"23",159,"right","SHINEd_birdie.jpg","congruent","m",914.502881,"j","j","right","(862, 362)",131,1,931.612454792816,252.854935246087," 1294.89",33,4,1,1
"23",160,"right","SHINEd_Car_Sedan.jpg","congruent","m",822.820413,"j","j","right","(862, 362)",183,1,840.333274466752,161.575754920023," 1839.86",131,3,1,1
"23",161,"left","SHINEd_Fan_Ceiling.jpg","incongruent","m",650.190844,"j","j","right","(148, 362)",48,1,668.106993140688,-10.6505264060411," 2661.51",35,4,1,1
"23",162,"left","SHINEd_Camel_Bactrian.jpg","congruent","n",470.714366,"f","f","left","(148, 362)",344,1,489.033802814624,-189.723716732105," 1412.09",94,3,0,0
"23",163,"left","SHINEd_Golf_Club.jpg","incongruent","m",586.970979,"j","j","right","(148, 362)",132,1,605.693703488559,-73.0638160581695,"  956.90",394,4,1,1
"23",164,"left","SHINEd_Pepper_Chili.jpg","congruent","n",776.211461,"f","f","left","(148, 362)",240,1,795.337473162495,116.579953615766," 1117.21",222,4,1,1
"23",165,"right","SHINEd_Coral.jpg","incongruent","n",860.375199,"f","f","left","(862, 362)",455,1,879.904498836431,201.146979289702,"  780.92",417,4,1,1
"23",166,"left","SHINEd_FireExtinguisher.jpg","incongruent","m",625.130918,"j","j","right","(148, 362)",112,1,645.063505510367,-33.6940140363624," 2932.82",4,4,1,1
"23",167,"right","SHINEd_Organ.jpg","congruent","m",644.279989,"j","j","right","(862, 362)",7,1,664.615864184302,-14.1416553624266," 1260.03",392,4,1,1
"23",168,"left","SHINEd_Garbage_GreenBin.jpg","incongruent","m",601.526838,"j","j","right","(148, 362)",144,1,622.266000858238,-56.4915186884908," 1695.14",72,4,1,1
"23",169,"right","SHINEd_Harp.jpg","congruent","m",637.605532,"j","j","right","(862, 362)",11,1,658.747982532174,-20.009537014555," 5045.57",42,3,1,1
"23",170,"right","SHINEd_Stroller.jpg","congruent","m",464.879897,"j","j","right","(862, 362)",55,1,486.42563520611,-192.331884340619," 1390.70",393,4,1,1
"23",171,"left","SHINEd_Cucumber.jpg","congruent","n",638.142748,"f","f","left","(148, 362)",364,1,660.091773880045,-18.6657456666836," 1068.81",262,4,1,1
"23",172,"left","SHINEd_BookShelf.jpg","incongruent","m",827.51562,"j","j","right","(148, 362)",204,1,849.867933553981,171.110414007252," 1199.45",244,3,1,1
"23",173,"left","SHINEd_Hand.jpg","congruent","n",560.390956,"f","f","left","(148, 362)",284,1,583.146557227917,-95.6109623188121,"  940.38",369,4,1,1
"23",174,"right","SHINEd_zebra.jpg","incongruent","n",802.466598,"f","f","left","(862, 362)",447,1,825.625486901853,146.867967355124," 3597.96",419,2,1,NA
"23",175,"left","SHINEd_sloth.jpg","congruent","n",701.840163,"f","f","left","(148, 362)",304,1,725.402339575788,46.6448200290594," 3374.54",266,3,1,1
"23",176,"right","SHINEd_Cup_Bathroom.jpg","congruent","m",537.74768,"j","j","right","(862, 362)",51,1,561.713144249724,-117.044375297005," 2166.48",66,2,1,NA
"23",177,"right","SHINEd_Puffin.jpg","incongruent","n",509.825549,"f","f","left","(862, 362)",231,1,534.19430092366,-144.563218623069," 1835.32",174,4,1,1
"23",178,"left","SHINEd_CoffeeBeans.jpg","congruent","n",643.598094,"f","f","left","(148, 362)",332,1,668.370133597596,-10.3873859491334," 1469.13",157,4,1,1
"23",179,"right","SHINEd_clementine.jpg","incongruent","n",NA,"miss","f","left","(862, 362)",359,0,NA,NA,"11123.78",139,4,1,1
"23",180,"right","SHINEd_Notepad.jpg","congruent","m",547.632242,"j","j","right","(862, 362)",71,1,573.210856945467,-105.546662601262," 1765.51",378,3,1,1
"23",181,"right","SHINEd_Ship_Model.jpg","congruent","m",573.94009,"f","j","right","(862, 362)",83,0,599.921992619403,-78.835526927326," 2732.32",261,4,1,1
"23",182,"right","SHINEd_organutan.jpg","incongruent","n",570.402949,"f","f","left","(862, 362)",343,1,596.788139293339,-81.9693802533903," 2516.41",316,2,0,0
"23",183,"right","SHINEd_Box_Staples.jpg","congruent","m",598.491861,"j","j","right","(862, 362)",67,1,625.280338967274,-53.4771805794546," 2097.79",304,3,1,1
"23",184,"left","SHINEd_Blackboard.jpg","incongruent","m",745.927463,"j","j","right","(148, 362)",72,1,773.11922864121,94.3617090944812," 2075.85",397,4,1,1
"23",185,"left","SHINEd_ant.jpg","congruent","n",628.785631,"f","f","left","(148, 362)",328,1,656.380684315146,-22.3768352315831," 1268.04",143,4,1,1
"23",186,"left","SHINEd_Box_Package.jpg","incongruent","m",544.737808,"j","j","right","(148, 362)",220,1,572.736148989082,-106.021370557647," 1390.68",254,4,1,1
"23",187,"right","SHINEd_Dresser.jpg","congruent","m",509.23428,"j","j","right","(862, 362)",203,1,537.635908663018,-141.121610883712," 1430.25",128,3,1,1
"23",188,"left","SHINEd_Cologne.jpg","incongruent","m",712.066812,"j","j","right","(148, 362)",116,1,740.871728336953,62.1142087902243," 1298.19",245,3,1,1
"23",189,"right","SHINEd_tree.jpg","incongruent","n",747.74494,"f","f","left","(862, 362)",375,1,776.953144010889,98.19562446416," 1383.64",327,4,1,1
"23",190,"right","SHINEd_paddle ball.jpg","congruent","m",640.855855,"j","j","right","(862, 362)",27,1,670.467346684825,-8.29017286190424," 1110.66",117,4,1,1
"23",191,"right","SHINEd_PaperCutter.jpg","congruent","m",653.226501,"j","j","right","(862, 362)",31,1,683.24128035876,4.48376081203148," 1267.05",267,4,1,1
"23",192,"left","SHINEd_ornament.jpg","incongruent","m",777.710405,"j","j","right","(148, 362)",224,1,808.128472032696,129.370952485967," 1112.63",116,4,1,1
"23",193,"left","SHINEd_Lock_Combination.jpg","incongruent","m",502.446338,"j","j","right","(148, 362)",64,1,533.267692706632,-145.489826840097," 1085.62",48,4,1,1
"23",194,"left","SHINEd_beetle.jpg","congruent","n",603.035787,"f","f","left","(148, 362)",356,1,634.260429380568,-44.4970901661612," 1461.87",409,3,0,0
"23",195,"left","SHINEd_CanOpener.jpg","incongruent","m",567.761313,"j","j","right","(148, 362)",160,1,599.389243054503,-79.3682764922255," 1743.27",445,3,0,0
"23",196,"left","SHINEd_SpiderWeb.jpg","congruent","n",460.86825,"j","f","left","(148, 362)",348,0,492.899467728439,-185.85805181829," 2638.47",80,4,1,1
"23",197,"right","SHINEd_Bowtie.jpg","congruent","m",648.366754,"j","j","right","(862, 362)",191,1,680.801259402375,2.04373985564604," 1080.37",171,3,1,1
"23",198,"right","SHINEd_WateringCan_PlasticDarkGreen.jpg","congruent","m",597.677033,"j","j","right","(862, 362)",215,1,630.514826076311,-48.2426934704182,"  853.05",50,4,1,1
"23",199,"right","SHINEd_bear.jpg","incongruent","n",714.580112,"f","f","left","(862, 362)",271,1,747.821192750246,69.0636732035175," 1039.35",329,3,0,0
"23",200,"right","SHINEd_Light_Siren.jpg","congruent","m",815.267402,"j","j","right","(862, 362)",95,1,848.911770424182,170.154250877453," 1445.57",67,3,1,1
"23",201,"right","SHINEd_Candleholder_LampShaped.jpg","congruent","m",508.636454,"j","j","right","(862, 362)",111,1,542.684110098118,-136.073409448611," 5879.32",207,3,1,1
"23",202,"right","SHINEd_beluga.jpg","incongruent","n",849.75841,"f","f","left","(862, 362)",431,1,884.209353772054,205.451834225325," 4003.76",82,4,1,1
"23",203,"right","SHINEd_Crayon_Green.jpg","congruent","m",542.512793,"j","j","right","(862, 362)",63,1,577.36702444599,-101.390495100739,"  827.59",355,4,1,1
"23",204,"right","SHINEd_Microwave.jpg","congruent","m",673.774101,"f","j","right","(862, 362)",155,0,709.031620119925,30.2741005731963," 1238.96",298,4,1,1
"23",205,"right","SHINEd_pistachios-.jpg","incongruent","n",557.652698,"f","f","left","(862, 362)",411,1,593.313504793861,-85.444014752868," 1324.90",238,4,1,1
"23",206,"left","SHINEd_Hammer.jpg","incongruent","m",577.72024,"j","j","right","(148, 362)",36,1,613.784334467797,-64.9731850789322,"  926.21",382,4,1,1
"23",207,"left","SHINEd_Sheep.jpg","congruent","n",541.887958,"f","f","left","(148, 362)",300,1,578.355340141733,-100.402179404996," 1901.89",299,2,0,0
"23",208,"left","SHINEd_DoubleBass.jpg","incongruent","m",795.167839,"j","j","right","(148, 362)",8,1,832.038508815668,153.280989268939," 1973.94",418,3,0,0
"23",209,"left","SHINEd_Ball_Football.jpg","incongruent","m",639.789992,"j","j","right","(148, 362)",128,1,677.063949489604,-1.69357005712496," 1744.01",44,4,1,1
"23",210,"right","SHINEd_LetterMail.jpg","congruent","m",619.34391,"j","j","right","(862, 362)",75,1,657.02115516354,-21.7363643831891," 1174.27",190,4,1,1
"23",211,"left","SHINEd_eggs.jpg","congruent","n",777.270489,"f","f","left","(148, 362)",296,1,815.351021837476,136.593502290747," 5708.44",358,3,1,1
"23",212,"right","SHINEd_almond.jpg","incongruent","n",796.977195,"f","f","left","(862, 362)",311,1,835.461015511411,156.703495964682,"  927.75",424,3,1,1
"23",213,"right","SHINEd_Seal_animal.jpg","incongruent","n",497.24123,"f","f","left","(862, 362)",379,1,536.128338185347,-142.629181361382," 3918.15",319,3,1,1
"23",214,"left","SHINEd_Leaf_Green.jpg","congruent","n",574.208387,"f","f","left","(148, 362)",448,1,613.498782859283,-65.2587366874462," 1625.21",344,3,0,0
"23",215,"right","SHINEd_Hippopotamus.jpg","incongruent","n",763.423632,"f","f","left","(862, 362)",367,1,803.117315533219,124.35979598649,"10329.47",438,3,1,1
"23",216,"left","SHINEd_Button.jpg","incongruent","m",622.263796,"j","j","right","(148, 362)",4,1,662.360767207154,-16.3967523395747," 2265.53",87,2,1,NA
"23",217,"left","SHINEd_bullrush.jpg","congruent","n",708.153029,"f","f","left","(148, 362)",324,1,748.65328788109,69.895768334361," 1512.70",188,4,1,1
"23",218,"right","SHINEd_Panda.jpg","incongruent","n",608.194334,"f","f","left","(862, 362)",251,1,649.097880555026,-29.6596389917031," 2902.43",237,2,1,NA
"23",219,"right","SHINEd_Caribou.jpg","incongruent","n",395.957677,"f","f","left","(862, 362)",435,1,437.264511228962,-241.493008317767," 2439.38",127,2,0,0
"23",220,"right","SHINEd_SpongeScrubbing.jpg","congruent","m",585.53223,"j","j","right","(862, 362)",139,1,627.242351902897,-51.5151676438316," 1537.63",58,4,1,1
"23",221,"right","SHINEd_Shoes_Pumps.jpg","congruent","m",959.141813,"f","j","right","(862, 362)",151,0,1001.25522257683,322.497703030104," 2345.12",62,2,1,NA
"23",222,"left","SHINEd_Ginger.jpg","congruent","n",738.345218,"f","f","left","(148, 362)",236,1,780.861915250769,102.10439570404,"  694.92",119,4,1,1
"23",223,"right","SHINEd_CDstack.jpg","congruent","m",670.158,"j","j","right","(862, 362)",15,1,713.077984924705,34.3204653779756," 2115.69",129,4,1,1
"23",224,"left","SHINEd_RibbonSpool.jpg","incongruent","m",706.506215,"j","j","right","(148, 362)",80,1,749.82948759864,71.0719680519114," 1812.51",270,4,1,1
"23",225,"right","SHINEd_alfalfa.jpg","incongruent","n",796.764935,"f","f","left","(862, 362)",283,1,840.491495272576,161.733975725847,"  856.39",146,4,1,1
"23",226,"right","SHINEd_Bat_Baseball.jpg","congruent","m",585.556631,"j","j","right","(862, 362)",127,1,629.686478946512,-49.0710406002171," 3439.83",9,4,1,1
"23",227,"right","SHINEd_alligator.jpg","incongruent","n",572.838168,"f","f","left","(862, 362)",355,1,617.371303620448,-61.3862159262814," 1385.50",216,4,1,1
"23",228,"left","SHINEd_Light_Traffic.jpg","incongruent","m",752.593522,"j","j","right","(148, 362)",180,1,797.529945294383,118.772425747654," 2167.29",406,3,0,0
