"participant","trial_index","screenposition","stimulus","trialtype","classifyenc","rt","response","responsecorrect","responsecorrect_side","screenlocation","stimnum","acc","rtResidual","rtResidualC","rt_rec","trialno_rec","ratingConfidence","acc_rec","memoryHits.hc"
"24",1,"left","SHINEd_Buffalo.jpg","incongruent","n",649.892682,"j","j","right","(148, 362)",432,1,611.708857199286,58.1828785428986," 1127.08",153,4,1,1
"24",2,"left","SHINEd_IroningBoard.jpg","congruent","m",621.260551,"f","f","left","(148, 362)",52,1,583.41273675246,29.8867580960724," 5129.13",101,3,1,1
"24",3,"left","SHINEd_Pitcher.jpg","congruent","m",545.181502,"f","f","left","(148, 362)",56,1,507.669698305637,-45.8562803507503," 1709.60",434,3,0,0
"24",4,"right","SHINEd_Crayon_Green.jpg","incongruent","m",484.45659,"f","f","left","(862, 362)",63,1,447.280796858815,-106.245181797573,"  952.50",147,4,1,1
"24",5,"right","SHINEd_lime.jpg","congruent","n",632.810705,"j","j","right","(862, 362)",439,1,595.970922411992,42.4449437556044," 1301.55",165,4,1,1
"24",6,"left","SHINEd_Banana.jpg","incongruent","n",630.026523,"j","j","right","(148, 362)",376,1,593.522750965169,39.9967723087817,"  919.99",119,4,1,1
"24",7,"right","SHINEd_Potato.jpg","congruent","n",569.382085,"j","j","right","(862, 362)",423,1,533.214323518347,-20.311655138041," 1068.33",222,4,1,1
"24",8,"right","SHINEd_Candleholder_LampShaped.jpg","incongruent","m",565.432845,"f","f","left","(862, 362)",111,1,529.601094071524,-23.9248845848635," 1024.16",436,4,1,1
"24",9,"right","SHINEd_Sand.jpg","congruent","n",928.455957,"j","j","right","(862, 362)",279,1,892.960216624701,339.434237968314," 1192.52",313,4,1,1
"24",10,"left","SHINEd_chick hatch.jpg","incongruent","n",780.560519,"j","j","right","(148, 362)",384,1,745.400789177879,191.874810521491," 1182.51",187,4,1,1
"24",11,"left","SHINEd_CanOpener.jpg","congruent","m",568.38679,"f","f","left","(148, 362)",160,1,533.563070731056,-19.9629079253315," 1665.01",92,4,1,1
"24",12,"left","SHINEd_lorises.jpg","incongruent","n",514.36845,"j","j","right","(148, 362)",428,1,479.880741284234,-73.6452373721541," 1103.98",27,4,1,1
"24",13,"left","SHINEd_GasStation.jpg","congruent","m",501.726089,"f","f","left","(148, 362)",168,1,467.574390837411,-85.9515878189768," 1101.69",275,4,1,1
"24",14,"right","SHINEd_MannequinBust.jpg","incongruent","m",418.630223,"f","f","left","(862, 362)",103,1,384.814535390588,-168.711443265799,"  980.82",160,4,1,1
"24",15,"right","SHINEd_dates_fresh.jpg","congruent","n",430.201767,"f","j","right","(862, 362)",319,0,396.722089943766,-156.803888712622," 6015.28",70,2,0,0
"24",16,"left","SHINEd_ant.jpg","incongruent","n",544.923659,"j","j","right","(148, 362)",328,1,511.779992496943,-41.7459861594448," 1623.34",25,4,1,1
"24",17,"left","SHINEd_EspressoMachine.jpg","congruent","m",603.944624,"f","f","left","(148, 362)",156,1,571.13696805012,17.6109893937325," 1751.38",87,2,1,NA
"24",18,"left","SHINEd_papaya.jpg","incongruent","n",575.688044,"j","j","right","(148, 362)",292,1,543.216398603298,-10.3095800530901," 2032.71",135,4,1,1
"24",19,"left","SHINEd_Hand.jpg","incongruent","n",570.505348,"f","j","right","(148, 362)",284,0,538.369713156475,-15.1562654999127," 1072.10",44,4,1,1
"24",20,"left","SHINEd_alarm.jpg","congruent","m",719.054459,"f","f","left","(148, 362)",96,1,687.254834709652,133.728856053265," 1564.70",40,4,1,1
"24",21,"left","SHINEd_Boar.jpg","incongruent","n",467.438127,"j","j","right","(148, 362)",264,1,435.97451326283,-117.551465393558," 1881.57",265,2,1,NA
"24",22,"right","SHINEd_KiddiePool.jpg","incongruent","m",726.195458,"j","f","left","(862, 362)",87,0,695.067854816007,141.541876159619," 1381.80",316,4,1,1
"24",23,"left","SHINEd_Outhouse.jpg","congruent","m",808.557116,"f","f","left","(148, 362)",164,1,777.765523369184,224.239544712797," 1761.00",425,4,1,1
"24",24,"right","SHINEd_Stroller.jpg","incongruent","m",572.419259,"f","f","left","(862, 362)",55,1,541.963676922362,-11.562301734026," 1180.30",118,4,1,1
"24",25,"right","SHINEd_penguin.jpg","congruent","n",543.457721,"j","j","right","(862, 362)",307,1,513.338149475539,-40.1878291808487,"  927.50",52,4,1,1
"24",26,"right","SHINEd_Cable_AudioSplitter.jpg","incongruent","m",612.74537,"f","f","left","(862, 362)",91,1,582.961809028716,29.4358303723286,"  984.31",277,4,1,1
"24",27,"right","SHINEd_pine-cone-.jpg","congruent","n",592.10103,"j","j","right","(862, 362)",399,1,562.653479581894,9.12750092550604," 1380.25",281,4,1,1
"24",28,"left","SHINEd_Bottle_Bleach.jpg","congruent","m",458.073139,"f","f","left","(148, 362)",212,1,428.961599135071,-124.564379521317," 1725.74",18,4,1,1
"24",29,"right","SHINEd_Bed_Hospital.jpg","incongruent","m",462.990241,"f","f","left","(862, 362)",207,1,434.214711688248,-119.311266968139," 1190.87",410,4,1,1
"24",30,"left","SHINEd_ScannerShoplifting.jpg","congruent","m",465.662731,"f","f","left","(148, 362)",100,1,437.223212241426,-116.302766414962," 1135.51",239,4,1,1
"24",31,"left","SHINEd_anteater.jpg","incongruent","n",646.827134,"j","j","right","(148, 362)",368,1,618.723625794603,65.1976471382154," 2007.89",140,3,1,1
"24",32,"left","SHINEd_blueberries.jpg","incongruent","n",491.009349,"j","j","right","(148, 362)",232,1,463.24185134778,-90.2841273086073," 1659.56",354,4,1,1
"24",33,"right","SHINEd_alligator.jpg","congruent","n",509.560665,"j","j","right","(862, 362)",355,1,482.129177900958,-71.3968007554299," 1391.27",33,4,1,1
"24",34,"right","SHINEd_Cage_Bird.jpg","incongruent","m",648.308135,"f","f","left","(862, 362)",123,1,621.212658454135,67.6866797977474,"  919.94",261,4,1,1
"24",35,"left","SHINEd_Shampoo.jpg","congruent","m",492.191992,"f","f","left","(148, 362)",120,1,465.432526007313,-88.0934526490752," 1174.26",238,4,1,1
"24",36,"left","SHINEd_Pepper_Chili.jpg","incongruent","n",599.379463,"j","j","right","(148, 362)",240,1,572.95600756049,19.4300289041021,"  776.98",252,4,1,1
"24",37,"left","SHINEd_Bib.jpg","congruent","m",708.157871,"f","f","left","(148, 362)",136,1,682.070426113667,128.544447457279," 1260.77",395,3,0,0
"24",38,"right","SHINEd_MousepadAndMouse.jpg","incongruent","m",797.609992,"f","f","left","(862, 362)",99,1,771.858557666844,218.332579010457," 1032.72",65,4,1,1
"24",39,"left","SHINEd_Key_Car.jpg","congruent","m",505.850343,"f","f","left","(148, 362)",176,1,480.434919220022,-73.0910594363658," 1477.61",198,3,0,0
"24",40,"right","SHINEd_Harp.jpg","incongruent","m",597.226006,"f","f","left","(862, 362)",11,1,572.146592773199,18.6206141168115," 2496.59",121,3,1,1
"24",41,"left","SHINEd_FireExtinguisher.jpg","congruent","m",450.680626,"f","f","left","(148, 362)",112,1,425.937223326377,-127.588755330011,"  743.38",241,4,1,1
"24",42,"left","SHINEd_Sheep.jpg","incongruent","n",549.269238,"j","j","right","(148, 362)",300,1,524.861845879554,-28.6641327768338," 4941.41",307,1,1,NA
"24",43,"right","SHINEd_almond.jpg","congruent","n",456.739024,"f","j","right","(862, 362)",311,0,432.667642432731,-120.858336223656," 1245.23",97,4,1,1
"24",44,"right","SHINEd_Toolbox_RedOpen.jpg","incongruent","m",716.520537,"f","f","left","(862, 362)",39,1,692.785165985909,139.259187329521," 1933.90",17,4,1,1
"24",45,"left","SHINEd_vulture.jpg","incongruent","n",583.850676,"j","j","right","(148, 362)",436,1,560.451315539086,6.92533688269827," 1263.35",170,3,1,1
"24",46,"left","SHINEd_Clothespin_Red.jpg","congruent","m",571.322179,"f","f","left","(148, 362)",60,1,548.258829092263,-5.2671495641244," 1296.78",125,4,1,1
"24",47,"right","SHINEd_Box_Staples.jpg","incongruent","m",606.937066,"f","f","left","(862, 362)",67,1,584.209726645441,30.6837479890529," 1195.25",406,4,1,1
"24",48,"right","SHINEd_firetruck.jpg","incongruent","m",514.434105,"f","f","left","(862, 362)",179,1,492.042776198618,-61.4832024577697,"  973.13",415,4,1,1
"24",49,"right","SHINEd_beluga.jpg","congruent","n",534.456047,"j","j","right","(862, 362)",431,1,512.400728751795,-41.1252499045924,"  798.78",86,4,1,1
"24",50,"right","SHINEd_CapGraduation.jpg","incongruent","m",563.663711,"f","f","left","(862, 362)",187,1,541.944403304973,-11.581575351415," 2040.26",193,2,0,0
"24",51,"left","SHINEd_Garbage_GreenBin.jpg","congruent","m",510.914419,"f","f","left","(148, 362)",144,1,489.53112185815,-63.9948567982377," 1206.19",30,4,1,1
"24",52,"right","SHINEd_Cauliflower.jpg","congruent","n",611.074929,"j","j","right","(862, 362)",291,1,590.027642411327,36.5016637549397," 1847.02",280,3,0,0
"24",53,"right","SHINEd_Bowtie.jpg","incongruent","m",548.827505,"f","f","left","(862, 362)",191,1,528.116228964505,-25.409749691883,"  806.85",251,4,1,1
"24",54,"right","SHINEd_sanddollar.jpg","congruent","n",898.238531,"j","j","right","(862, 362)",295,1,877.863265517682,324.337286861294," 1432.52",404,4,1,1
"24",55,"left","SHINEd_Lobster.jpg","incongruent","n",533.242454,"j","j","right","(148, 362)",288,1,513.203199070859,-40.3227795855283," 1030.21",28,4,1,1
"24",56,"left","SHINEd_mint.jpg","incongruent","n",546.533759,"j","j","right","(148, 362)",360,1,526.830514624037,-26.6954640323509," 1167.21",305,3,1,1
"24",57,"right","SHINEd_Hedgehog.jpg","congruent","n",621.26667,"f","j","right","(862, 362)",243,0,601.899436177214,48.3734575208264," 1051.50",408,3,1,1
"24",58,"right","SHINEd_MalletJudge.jpg","incongruent","m",561.111957,"f","f","left","(862, 362)",35,1,542.080733730391,-11.4452449259963," 1461.60",64,4,1,1
"24",59,"right","SHINEd_clementine.jpg","congruent","n",868.374023,"j","j","right","(862, 362)",359,1,849.678810283569,296.152831627181," 1148.94",262,4,1,1
"24",60,"right","SHINEd_Basket_Plastic.jpg","incongruent","m",511.670563,"f","f","left","(862, 362)",211,1,493.311360836746,-60.2146178196415," 1615.54",366,2,1,NA
"24",61,"right","SHINEd_Dresser.jpg","incongruent","m",426.9286,"f","f","left","(862, 362)",203,1,408.905408389923,-144.620570266464," 3127.33",35,4,1,1
"24",62,"left","SHINEd_Cassette_Audio.jpg","congruent","m",657.251065,"f","f","left","(148, 362)",148,1,639.563883943101,86.0379052867132," 1865.42",84,4,1,1
"24",63,"left","SHINEd_maggotts.jpg","incongruent","n",523.279501,"j","j","right","(148, 362)",392,1,505.928330496278,-47.5976481601095," 2280.80",133,4,1,1
"24",64,"right","SHINEd_Seal_animal.jpg","congruent","n",478.84934,"f","j","right","(862, 362)",379,0,461.834180049455,-91.6917986069322," 3030.96",258,2,0,0
"24",65,"left","SHINEd_Squash_Butternut.jpg","incongruent","n",786.212331,"j","j","right","(148, 362)",444,1,769.533181602633,216.007202946245," 1450.70",102,4,1,1
"24",66,"right","SHINEd_Shark_GreatWhite.jpg","congruent","n",486.949793,"j","j","right","(862, 362)",287,1,470.60665415581,-82.9193245005775,"  800.58",157,4,1,1
"24",67,"left","SHINEd_Cow.jpg","incongruent","n",514.539633,"j","j","right","(148, 362)",320,1,498.532504708988,-54.9934739474001," 1126.49",120,4,1,1
"24",68,"right","SHINEd_FloppyDisk.jpg","incongruent","m",564.431204,"f","f","left","(862, 362)",147,1,548.760086262165,-4.7658923942228," 1581.72",226,4,1,1
"24",69,"right","SHINEd_edamame.jpg","congruent","n",912.888757,"j","j","right","(862, 362)",303,1,897.553649815342,344.027671158955," 2188.11",335,2,1,NA
"24",70,"left","SHINEd_beetle.jpg","incongruent","n",500.348766,"j","j","right","(148, 362)",356,1,485.34966936852,-68.1763092878681," 2772.41",175,3,1,1
"24",71,"right","SHINEd_Hippopotamus.jpg","congruent","n",496.61536,"f","j","right","(862, 362)",367,0,481.952273921697,-71.5737047346907," 1125.55",380,2,1,NA
"24",72,"left","SHINEd_gazelle.jpg","incongruent","n",963.905669,"j","j","right","(148, 362)",268,1,949.578593474874,396.052614818487," 1246.44",428,3,1,1
"24",73,"left","SHINEd_seatAirplane.jpg","congruent","m",607.179122,"f","f","left","(148, 362)",172,1,593.188057028052,39.662078371664," 2284.87",303,4,1,1
"24",74,"left","SHINEd_Kangaroo.jpg","incongruent","n",474.124406,"j","j","right","(148, 362)",312,1,460.469351581229,-93.0566270751587,"  927.80",57,4,1,1
"24",75,"right","SHINEd_white sesame.jpg","congruent","n",694.881777,"j","j","right","(862, 362)",371,1,681.562733134406,128.036754478019," 2510.21",382,2,0,0
"24",76,"left","SHINEd_Bag_Camera.jpg","congruent","m",497.726097,"f","f","left","(148, 362)",216,1,484.743063687584,-68.782914968804," 5809.76",1,3,0,0
"24",77,"left","SHINEd_Plum.jpg","incongruent","n",564.726991,"f","j","right","(148, 362)",244,0,552.079968240761,-1.44601041562666," 1452.96",451,2,1,NA
"24",78,"left","SHINEd_HedgeShears.jpg","congruent","m",657.815036,"f","f","left","(148, 362)",28,1,645.504023793938,91.9780451375507," 1477.35",164,2,1,NA
"24",79,"left","SHINEd_rhino.jpg","incongruent","n",515.73542,"j","j","right","(148, 362)",352,1,503.760418347116,-49.765560309272," 1133.15",168,4,1,1
"24",80,"right","SHINEd_OnionRed.jpg","congruent","n",623.231719,"j","j","right","(862, 362)",383,1,611.592727900293,58.0667492439054," 2021.26",23,4,1,1
"24",81,"right","SHINEd_Tractor_Orange.jpg","incongruent","m",556.688898,"f","f","left","(862, 362)",175,1,545.38591745347,-8.14006120291728," 1384.75",138,2,0,0
"24",82,"right","SHINEd_organutan.jpg","congruent","n",838.268926,"j","j","right","(862, 362)",343,1,827.301956006648,273.77597735026," 1385.20",68,4,1,1
"24",83,"left","SHINEd_Pig.jpg","incongruent","n",NA,"miss","j","right","(148, 362)",424,0,NA,NA," 5088.32",73,1,1,NA
"24",84,"left","SHINEd_Fan_Ceiling.jpg","congruent","m",429.56113,"f","f","left","(148, 362)",48,1,419.266181113002,-134.259797543385," 1290.35",244,3,0,0
"24",85,"right","SHINEd_Bat_Baseball.jpg","incongruent","m",400.130136,"f","f","left","(862, 362)",127,1,390.17119766618,-163.354780990208," 1696.01",177,2,0,0
"24",86,"right","SHINEd_Seashell_RoseMurex.jpg","congruent","n",452.754752,"j","j","right","(862, 362)",327,1,443.131824219357,-110.394154437031,"  822.10",317,4,1,1
"24",87,"left","SHINEd_Golf_Club.jpg","congruent","m",375.000527,"f","f","left","(148, 362)",132,1,365.713609772534,-187.812368883853,"  924.38",297,4,1,1
"24",88,"right","SHINEd_Car_Sedan.jpg","incongruent","m",468.107697,"f","f","left","(862, 362)",183,1,459.156790325712,-94.3691883306759," 2815.86",298,3,0,0
"24",89,"left","SHINEd_Exercise_Bike.jpg","congruent","m",494.267258,"f","f","left","(148, 362)",24,1,485.652361878889,-67.8736167774985," 3733.52",320,3,1,1
"24",90,"left","SHINEd_Pepper_Green.jpg","incongruent","n",483.252868,"j","j","right","(148, 362)",372,1,474.973982432066,-78.5519962243212,"  910.73",115,4,1,1
"24",91,"right","SHINEd_DryRack_Dishes.jpg","incongruent","m",470.254291,"f","f","left","(862, 362)",135,1,462.311415985244,-91.2145626711438," 2405.08",269,3,0,0
"24",92,"left","SHINEd_DrainPlug.jpg","congruent","m",536.995208,"f","f","left","(148, 362)",140,1,529.388343538421,-24.1376351179664," 2453.18",373,3,1,1
"24",93,"left","SHINEd_Scorpion.jpg","incongruent","n",516.570055,"j","j","right","(148, 362)",396,1,509.299201091599,-44.2267775647891,"  879.78",443,4,1,1
"24",94,"left","SHINEd_ornament.jpg","congruent","m",647.990563,"f","f","left","(148, 362)",224,1,641.055719644776,87.5297409883882," 1354.54",47,4,1,1
"24",95,"right","SHINEd_Bus_School.jpg","incongruent","m",421.288134,"f","f","left","(862, 362)",171,1,414.689301197953,-138.836677458434," 1918.11",190,4,0,0
"24",96,"right","SHINEd_Binoculars.jpg","incongruent","m",599.222156,"f","f","left","(862, 362)",199,1,592.959333751131,39.433355094743," 1525.14",172,4,1,1
"24",97,"right","SHINEd_Caribou.jpg","congruent","n",516.133973,"j","j","right","(862, 362)",435,1,510.207161304308,-43.3188173520798," 2702.01",179,2,1,NA
"24",98,"left","SHINEd_alpaca_fo.jpg","incongruent","n",591.001986,"j","j","right","(148, 362)",400,1,585.411184857485,31.8852062010976," 1652.64",377,3,0,0
"24",99,"left","SHINEd_Oneholepunch.jpg","congruent","m",521.575241,"f","f","left","(148, 362)",76,1,516.320450410663,-37.205528245725," 2252.98",77,4,1,1
"24",100,"right","SHINEd_ashtray.jpg","incongruent","m",653.202768,"f","f","left","(862, 362)",227,1,648.28398796384,94.7580093074523," 1947.94",264,3,1,1
"24",101,"left","SHINEd_PassionFruit.jpg","incongruent","n",537.861133,"j","j","right","(148, 362)",452,1,533.278363517017,-20.2476151393704," 3420.65",393,4,1,1
"24",102,"right","SHINEd_elbow.jpg","congruent","n",445.635225,"f","j","right","(862, 362)",263,0,441.388466070195,-112.137512586193," 4228.36",453,2,0,0
"24",103,"right","SHINEd_Microwave.jpg","incongruent","m",546.689366,"f","f","left","(862, 362)",155,1,542.778617623372,-10.7473610330157," 1101.83",106,4,1,1
"24",104,"left","SHINEd_Ball_Football.jpg","congruent","m",653.878016,"f","f","left","(148, 362)",128,1,650.303278176549,96.7772995201617," 1398.33",139,4,1,1
"24",105,"left","SHINEd_Earrings_Dangling.jpg","congruent","m",585.335338,"f","f","left","(148, 362)",196,1,582.096610729727,28.570632073339," 1021.03",284,4,1,1
"24",106,"right","SHINEd_LightBulb_White.jpg","incongruent","m",539.605329,"f","f","left","(862, 362)",47,1,536.702612282904,-16.8233663734836,"  800.04",400,4,1,1
"24",107,"right","SHINEd_goldfish.jpg","congruent","n",608.130108,"f","j","right","(862, 362)",275,0,605.563401836081,52.0374231796937," 1308.77",376,3,1,1
"24",108,"right","SHINEd_Oars.jpg","incongruent","m",531.762393,"f","f","left","(862, 362)",19,1,529.531697389259,-23.9942812671289,"  973.86",266,4,1,1
"24",109,"right","SHINEd_Fish_Swordfish.jpg","congruent","n",478.107488,"j","j","right","(862, 362)",331,1,476.212802942436,-77.3131757139516," 1096.27",114,4,1,1
"24",110,"right","SHINEd_PaperCutter.jpg","incongruent","m",448.708014,"f","f","left","(862, 362)",31,1,447.149339495613,-106.376639160774," 1165.12",103,4,1,1
"24",111,"left","SHINEd_Guitar_Acoustic.jpg","congruent","m",467.612003,"f","f","left","(148, 362)",12,1,466.389339048791,-87.1366396075969," 1629.64",389,3,1,1
"24",112,"left","SHINEd_eggs.jpg","incongruent","n",536.677173,"j","j","right","(148, 362)",296,1,535.790519601968,-17.7354590544195," 2828.51",427,3,0,0
"24",113,"right","SHINEd_Swan.jpg","congruent","n",571.082435,"j","j","right","(862, 362)",443,1,570.531792155145,17.0058134987578," 1676.24",14,4,1,1
"24",114,"right","SHINEd_Iguana.jpg","congruent","n",463.133476,"j","j","right","(862, 362)",387,1,462.918843708323,-90.6071349480649,"  710.86",202,4,1,1
"24",115,"left","SHINEd_Ginger.jpg","incongruent","n",755.562499,"j","j","right","(148, 362)",236,1,755.6838772615,202.157898605113,"  971.19",260,4,1,1
"24",116,"right","SHINEd_Seahorse.jpg","congruent","n",567.225954,"j","j","right","(862, 362)",347,1,567.683342814678,14.1573641582899,"  977.13",199,4,1,1
"24",117,"right","SHINEd_Cup_Bathroom.jpg","incongruent","m",448.97372,"f","f","left","(862, 362)",51,1,449.767119367855,-103.758859288533," 1199.11",386,4,1,1
"24",118,"right","SHINEd_Ferret.jpg","congruent","n",500.984563,"j","j","right","(862, 362)",239,1,502.113972921032,-51.4120057353555," 1487.23",213,3,1,1
"24",119,"left","SHINEd_Camel_Bactrian.jpg","incongruent","n",496.935988,"j","j","right","(148, 362)",344,1,498.40140847421,-55.1245701821781," 2166.38",345,4,1,1
"24",120,"right","SHINEd_zebra.jpg","congruent","n",454.205396,"j","j","right","(862, 362)",447,1,456.006827027387,-97.5191516290007," 1390.21",16,4,1,1
"24",121,"right","SHINEd_Fence_Wooden.jpg","incongruent","m",480.827147,"f","f","left","(862, 362)",163,1,482.964588580564,-70.5613900758234," 1670.26",440,2,1,NA
"24",122,"left","SHINEd_Tie.jpg","congruent","m",460.2751,"f","f","left","(148, 362)",192,1,462.748552133742,-90.7774265226461,"  940.89",357,4,1,1
"24",123,"right","SHINEd_Playard.jpg","incongruent","m",528.498346,"j","f","left","(862, 362)",59,0,531.307808686919,-22.2181699694688," 2078.03",402,4,0,0
"24",124,"left","SHINEd_tapir copy.jpg","incongruent","n",501.234472,"f","j","right","(148, 362)",408,0,504.379945240096,-49.1460334162914," 4693.45",355,2,0,0
"24",125,"left","SHINEd_Button.jpg","congruent","m",464.939552,"f","f","left","(148, 362)",4,1,468.421035793274,-85.104942863114," 1389.19",131,3,1,1
"24",126,"left","SHINEd_Lettuce_GreenLeaf.jpg","incongruent","n",579.670313,"j","j","right","(148, 362)",248,1,583.487807346451,29.9618286900633," 3228.28",418,1,1,NA
"24",127,"right","SHINEd_Eggplant.jpg","congruent","n",607.485626,"j","j","right","(862, 362)",267,1,611.639130899628,58.1131522432407," 1671.30",7,4,1,1
"24",128,"left","SHINEd_raspberry.jpg","incongruent","n",546.377522,"j","j","right","(148, 362)",456,1,550.867037452806,-2.65894120358199,"  885.58",411,4,1,1
"24",129,"left","SHINEd_Dart.jpg","congruent","m",494.631105,"f","f","left","(148, 362)",20,1,499.456631005983,-54.0693476504047," 1004.54",392,4,1,1
"24",130,"right","SHINEd_CDstack.jpg","incongruent","m",658.272845,"f","f","left","(862, 362)",15,1,663.43438155916,109.908402902773," 1239.00",349,4,1,1
"24",131,"right","SHINEd_Crab.jpg","congruent","n",590.150008,"j","j","right","(862, 362)",259,1,595.647555112338,42.12157645595," 1494.88",360,4,1,1
"24",132,"right","SHINEd_alfalfa.jpg","congruent","n",553.51321,"f","j","right","(862, 362)",283,0,559.346767665515,5.82078900912735," 2590.92",257,2,0,0
"24",133,"left","SHINEd_housefly.jpg","incongruent","n",587.89751,"j","j","right","(148, 362)",420,1,594.067078218692,40.5410995623048," 1406.30",388,3,1,1
"24",134,"left","SHINEd_CompassCardinal.jpg","congruent","m",543.322552,"f","f","left","(148, 362)",40,1,549.82813077187,-3.69784788451794," 1043.96",20,4,1,1
"24",135,"right","SHINEd_KitchenCloth.jpg","incongruent","m",539.618606,"f","f","left","(862, 362)",143,1,546.460195325047,-7.06578333134056," 3225.74",116,2,0,0
"24",136,"right","SHINEd_Staircase_Curving.jpg","incongruent","m",710.284199,"f","f","left","(862, 362)",115,1,717.461798878224,163.935820221837," 1135.76",414,4,1,1
"24",137,"right","SHINEd_Chimpanzee.jpg","congruent","n",611.514581,"j","j","right","(862, 362)",255,1,619.028191431402,65.5022127750141," 1246.76",184,3,1,1
"24",138,"right","SHINEd_tamarinds.jpg","congruent","n",590.25179,"j","j","right","(862, 362)",451,1,598.101410984579,44.5754323281915," 1493.84",141,4,1,1
"24",139,"left","SHINEd_blackberry.jpg","incongruent","n",496.91083,"j","j","right","(148, 362)",280,1,505.096461537756,-48.4295171186312,"  841.78",437,4,1,1
"24",140,"left","SHINEd_Light_Traffic.jpg","congruent","m",484.810274,"f","f","left","(148, 362)",180,1,493.331916090934,-60.1940625654538," 1229.87",110,4,1,1
"24",141,"right","SHINEd_birdie.jpg","incongruent","m",505.262462,"f","f","left","(862, 362)",131,1,514.120114644111,-39.4058640122765,"  983.92",166,4,1,1
"24",142,"right","SHINEd_Puffin.jpg","congruent","n",440.047428,"j","j","right","(862, 362)",231,1,449.241091197289,-104.284887459099," 1870.60",8,4,1,1
"24",143,"right","SHINEd_Ship_Model.jpg","incongruent","m",514.008145,"f","f","left","(862, 362)",83,1,523.537818750466,-29.9881599059218,"  919.52",214,4,1,1
"24",144,"right","SHINEd_tree.jpg","congruent","n",468.581027,"f","j","right","(862, 362)",375,0,478.446711303643,-75.0792673527444," 1456.15",81,4,1,1
"24",145,"left","SHINEd_SpiderWeb.jpg","incongruent","n",876.01229,"j","j","right","(148, 362)",348,1,886.213984856821,332.688006200433," 1159.60",182,4,1,1
"24",146,"left","SHINEd_Cucumber.jpg","incongruent","n",566.16564,"j","j","right","(148, 362)",364,1,576.703345409998,23.1773667536103,"  743.58",324,4,1,1
"24",147,"right","SHINEd_Panda.jpg","congruent","n",593.786246,"j","j","right","(862, 362)",251,1,604.659961963175,51.1339833067876," 1328.92",210,4,1,1
"24",148,"right","SHINEd_Barbecue_Gas.jpg","incongruent","m",485.243405,"f","f","left","(862, 362)",159,1,496.453131516353,-57.0728471400351," 2812.80",229,1,1,NA
"24",149,"left","SHINEd_Boombox.jpg","congruent","m",554.01845,"f","f","left","(148, 362)",92,1,565.56418706953,12.0382084131423," 1693.20",85,4,1,1
"24",150,"right","SHINEd_Olives.jpg","congruent","n",484.050882,"j","j","right","(862, 362)",419,1,495.932629622707,-57.5933490336804," 5243.83",270,3,1,1
"24",151,"right","SHINEd_feather.jpg","congruent","n",490.554639,"j","j","right","(862, 362)",415,1,502.772397175885,-50.753581480503," 1673.26",150,3,1,1
"24",152,"left","SHINEd_Pear_Yellow.jpg","incongruent","n",581.086531,"j","j","right","(148, 362)",416,1,593.640299729062,40.1143210726744," 1144.17",211,4,1,1
"24",153,"right","SHINEd_paddle ball.jpg","incongruent","m",457.39048,"f","f","left","(862, 362)",27,1,470.280259282239,-83.2457193741483," 1470.97",15,4,1,1
"24",154,"right","SHINEd_Flower_Daisy.jpg","congruent","n",515.948939,"f","j","right","(862, 362)",351,0,529.174728835417,-24.351249820971," 1364.01",195,4,1,1
"24",155,"right","SHINEd_turkey.jpg","congruent","n",927.78753,"j","j","right","(862, 362)",391,1,941.349330388594,387.823351732206," 2167.55",34,3,1,1
"24",156,"right","SHINEd_mapleleaf.jpg","congruent","n",476.18804,"j","j","right","(862, 362)",335,1,490.085850941771,-63.4401277146163," 2024.76",3,4,1,1
"24",157,"right","SHINEd_Box_GiftTopView.jpg","incongruent","m",469.793635,"f","f","left","(862, 362)",219,1,484.027456494949,-69.4985221614389," 1177.28",90,4,1,1
"24",158,"right","SHINEd_Dress_Blue.jpg","incongruent","m",466.85064,"f","f","left","(862, 362)",3,1,481.420472048126,-72.1055066082616,"  988.22",326,4,1,1
"24",159,"left","SHINEd_Glasses_Reading.jpg","congruent","m",526.29177,"f","f","left","(148, 362)",200,1,541.197612601303,-12.3283660550842,"  927.69",397,4,1,1
"24",160,"left","SHINEd_Blackboard.jpg","congruent","m",601.221263,"f","f","left","(148, 362)",72,1,616.463116154481,62.9371374980931," 1030.91",361,4,1,1
"24",161,"left","SHINEd_Lion.jpg","incongruent","n",516.040718,"j","j","right","(148, 362)",316,1,531.618581707658,-21.9073969487296," 1364.53",207,4,1,1
"24",162,"right","SHINEd_bat.jpg","congruent","n",391.94346,"j","j","right","(862, 362)",403,1,407.857334260836,-145.668644395552,"  916.84",201,4,1,1
"24",163,"right","SHINEd_Bandage_Adhesive.jpg","incongruent","m",388.107264,"f","f","left","(862, 362)",107,1,404.357148814013,-149.168829842375,"  899.87",300,4,1,1
"24",164,"left","SHINEd_RibbonSpool.jpg","congruent","m",616.313365,"f","f","left","(148, 362)",80,1,632.89926036719,79.3732817108025," 1200.20",250,4,1,1
"24",165,"left","SHINEd_fig.jpg","incongruent","n",580.868621,"j","j","right","(148, 362)",412,1,597.790526920367,44.2645482639798," 2240.79",124,3,1,1
"24",166,"right","SHINEd_WateringCan_PlasticDarkGreen.jpg","incongruent","m",480.88651,"f","f","left","(862, 362)",215,1,498.144426473545,-55.3815521828428," 1838.71",282,3,1,1
"24",167,"right","SHINEd_Owl.jpg","congruent","n",380.093114,"j","j","right","(862, 362)",407,1,397.687041026722,-155.838937629665,"  960.26",192,3,1,1
"24",168,"left","SHINEd_Clam.jpg","incongruent","n",447.556749,"f","j","right","(148, 362)",340,0,465.4866865799,-88.0392920764881," 2069.56",104,2,0,0
"24",169,"left","SHINEd_LifeJacket_BlueYellow.jpg","congruent","m",658.637395,"f","f","left","(148, 362)",16,1,676.903343133077,123.377364476689," 1576.53",208,3,1,1
"24",170,"left","SHINEd_Card_TwoSpade.jpg","congruent","m",477.274837,"j","f","left","(148, 362)",88,0,495.876795686254,-57.6491829701334," 1097.20",351,4,1,1
"24",171,"left","SHINEd_Hammock.jpg","congruent","m",530.168988,"f","f","left","(148, 362)",208,1,549.106957239432,-4.41902141695608," 1036.87",148,4,1,1
"24",172,"right","SHINEd_SpongeScrubbing.jpg","incongruent","m",452.85509,"f","f","left","(862, 362)",139,1,472.129069792609,-81.3969088637787," 1872.39",162,4,1,1
"24",173,"right","SHINEd_aloe.jpg","congruent","n",503.720772,"j","j","right","(862, 362)",299,1,523.330762345786,-30.1952163106014," 1327.58",398,4,1,1
"24",174,"left","SHINEd_sloth.jpg","incongruent","n",539.626537,"j","j","right","(148, 362)",304,1,559.572537898964,6.04655924257594," 1822.24",339,3,1,1
"24",175,"left","SHINEd_SnowGlobe.jpg","congruent","m",472.702236,"f","f","left","(148, 362)",84,1,492.984247452141,-60.5417312042467," 1020.48",49,4,1,1
"24",176,"right","SHINEd_sunflowers.jpg","congruent","n",554.305634,"j","j","right","(862, 362)",395,1,574.923656005318,21.3976773489307," 1236.42",371,2,1,NA
"24",177,"left","SHINEd_Hazelnut.jpg","incongruent","n",526.052147,"j","j","right","(148, 362)",252,1,547.006179558496,-6.51979909789202," 2120.55",105,3,1,1
"24",178,"right","SHINEd_puffer-fish.jpg","congruent","n",489.344038,"j","j","right","(862, 362)",339,1,510.634081111673,-42.8918975447146,"  950.33",341,4,1,1
"24",179,"left","SHINEd_bullrush.jpg","incongruent","n",606.04201,"f","j","right","(148, 362)",324,0,627.66806366485,74.1420850084627," 3063.20",158,4,1,1
"24",180,"left","SHINEd_DoubleBass.jpg","congruent","m",728.829355,"f","f","left","(148, 362)",8,1,750.791419218028,197.26544056164," 1364.01",56,4,1,1
"24",181,"right","SHINEd_moth.jpg","congruent","n",542.075785,"j","j","right","(862, 362)",427,1,564.373859771205,10.8478811148174," 1000.78",43,4,1,1
"24",182,"right","SHINEd_whistle.jpg","incongruent","m",553.302919,"f","f","left","(862, 362)",79,1,575.937004324382,22.4110256679947," 1896.54",322,4,1,1
"24",183,"left","SHINEd_SpinningWheel.jpg","congruent","m",445.040298,"f","f","left","(148, 362)",124,1,468.01039387756,-85.5155847788279," 1687.34",286,3,1,1
"24",184,"left","SHINEd_Squid_Pink.jpg","incongruent","n",609.198329,"j","j","right","(148, 362)",336,1,632.504435430737,78.9784567743494,"  956.40",352,4,1,1
"24",185,"right","SHINEd_Nuts_Peanuts.jpg","congruent","n",523.368131,"f","j","right","(862, 362)",235,0,547.010247983914,-6.51573067247329," 1199.71",236,4,1,1
"24",186,"right","SHINEd_Razor.jpg","incongruent","m",535.021196,"f","f","left","(862, 362)",119,1,558.999323537092,5.47334488070414," 1071.27",205,4,1,1
"24",187,"right","SHINEd_pistachios-.jpg","congruent","n",499.853138,"j","j","right","(862, 362)",411,1,524.167276090269,-29.3587025661185,"  947.85",254,4,1,1
"24",188,"left","SHINEd_TigerWhite.jpg","incongruent","n",495.307724,"j","j","right","(148, 362)",440,1,519.957872643447,-33.5681060129412," 5748.57",314,2,1,NA
"24",189,"right","SHINEd_KeyHook_Empty.jpg","incongruent","m",514.715279,"f","f","left","(862, 362)",223,1,539.701438196624,-13.8245404597638," 4566.32",156,4,1,1
"24",190,"left","SHINEd_Fridge.jpg","congruent","m",492.652803,"f","f","left","(148, 362)",44,1,517.974972749801,-35.5510059065865," 3006.99",151,3,1,1
"24",191,"right","SHINEd_Stingray.jpg","congruent","n",640.235813,"j","j","right","(862, 362)",315,1,665.893993302979,112.368014646591," 1216.70",93,4,1,1
"24",192,"left","SHINEd_Cougar.jpg","incongruent","n",539.785564,"j","j","right","(148, 362)",276,1,565.779754856156,12.2537761997682," 1325.06",142,3,1,1
"24",193,"right","SHINEd_LetterMail.jpg","incongruent","m",448.467411,"f","f","left","(862, 362)",75,1,474.797612409333,-78.7283662470544," 1437.23",304,3,0,0
"24",194,"left","SHINEd_Lighter_Yellow.jpg","congruent","m",476.635937,"f","f","left","(148, 362)",104,1,503.302148962511,-50.2238296938771," 1205.33",292,3,1,1
"24",195,"right","SHINEd_Light_Siren.jpg","incongruent","m",439.892652,"f","f","left","(862, 362)",95,1,466.894874515688,-86.6311041406998," 1592.05",13,4,1,1
"24",196,"left","SHINEd_Lock_Combination.jpg","congruent","m",458.224418,"f","f","left","(148, 362)",64,1,485.562651068865,-67.9633275875224,"  823.53",240,4,1,1
"24",197,"right","SHINEd_tooth.jpg","congruent","n",709.950646,"j","j","right","(862, 362)",363,1,737.624889622043,184.098910965655," 1033.74",29,4,1,1
"24",198,"left","SHINEd_Hat_Explorer.jpg","congruent","m",553.84997,"f","f","left","(148, 362)",188,1,581.86022417522,28.3342455188322," 1623.66",159,3,1,1
"24",199,"left","SHINEd_Dill.jpg","incongruent","n",455.171946,"j","j","right","(148, 362)",256,1,483.518210728397,-70.0077679279904," 1622.05",323,4,1,1
"24",200,"right","SHINEd_bear.jpg","congruent","n",562.632891,"j","j","right","(862, 362)",271,1,591.315166281575,37.7891876251869," 2207.45",423,3,0,0
"24",201,"left","SHINEd_BookShelf.jpg","congruent","m",460.879072,"f","f","left","(148, 362)",204,1,489.897357834752,-63.6286208216357," 1548.93",127,2,0,0
"24",202,"right","SHINEd_Stapler_Regular.jpg","incongruent","m",529.055074,"f","f","left","(862, 362)",43,1,558.409370387929,4.88339173154164," 1066.99",378,3,1,1
"24",203,"left","SHINEd_Hammer.jpg","congruent","m",572.929741,"f","f","left","(148, 362)",36,1,602.620047941107,49.094069284719," 2350.99",433,2,1,NA
"24",204,"left","SHINEd_Boots_KneeHigh.jpg","congruent","m",625.353251,"f","f","left","(148, 362)",152,1,655.379568494284,101.853589837896," 1430.14",364,2,0,0
"24",205,"left","SHINEd_groundhog.jpg","incongruent","n",428.094766,"j","j","right","(148, 362)",404,1,458.457094047461,-95.0688846089263," 3159.26",435,3,0,0
"24",206,"left","SHINEd_HorseshoeCrab.jpg","incongruent","n",463.179687,"f","j","right","(148, 362)",260,0,493.878025600639,-59.647953055749," 2711.37",421,2,1,NA
"24",207,"left","SHINEd_Bolt.jpg","congruent","m",556.182661,"f","f","left","(148, 362)",32,1,587.217010153816,33.6910314974284,"  856.39",409,4,1,1
"24",208,"left","SHINEd_bee.jpg","incongruent","n",423.817534,"j","j","right","(148, 362)",380,1,455.187893706993,-98.3380849493942," 2104.99",54,4,1,1
"24",209,"left","SHINEd_Bird_CanadianGoose.jpg","incongruent","n",467.250601,"j","j","right","(148, 362)",388,1,498.956971260171,-54.5690073962169," 2633.06",80,2,1,NA
"24",210,"left","SHINEd_PencilCase.jpg","congruent","m",509.748535,"f","f","left","(148, 362)",68,1,541.790915813348,-11.7350628430396," 1319.23",445,3,1,1
"24",211,"left","SHINEd_CinderBlock.jpg","congruent","m",473.967195,"f","f","left","(148, 362)",108,1,506.345586366525,-47.1803922898622," 1460.00",368,2,1,NA
"24",212,"right","SHINEd_Organ.jpg","incongruent","m",429.790623,"f","f","left","(862, 362)",7,1,462.505024919703,-91.0209537366849," 1806.16",310,3,1,1
"24",213,"right","SHINEd_Shoes_Pumps.jpg","incongruent","m",560.102101,"f","f","left","(862, 362)",151,1,593.15251347288,39.6265348164924," 1213.45",26,4,1,1
"24",214,"left","SHINEd_Box_Package.jpg","congruent","m",476.419083,"f","f","left","(148, 362)",220,1,509.805506026058,-43.7204726303302," 1702.90",19,4,1,1
"24",215,"left","SHINEd_CoffeeBeans.jpg","incongruent","n",504.654795,"j","j","right","(148, 362)",332,1,538.377228579235,-15.1487500771529," 1671.20",243,4,1,1
"24",216,"left","SHINEd_Celery.jpg","incongruent","n",548.101726,"f","j","right","(148, 362)",272,0,582.160170132412,28.6341914760245," 2983.47",169,3,1,1
"24",217,"left","SHINEd_Cologne.jpg","congruent","m",580.107382,"f","f","left","(148, 362)",116,1,614.50183668559,60.9758580292019," 1480.80",263,3,1,1
"24",218,"right","SHINEd_Notepad.jpg","incongruent","m",529.108053,"f","f","left","(862, 362)",71,1,563.838518238767,10.3125395823792," 1021.57",363,4,1,1
"24",219,"right","SHINEd_Belt.jpg","incongruent","m",596.046683,"f","f","left","(862, 362)",195,1,631.113158791944,77.5871801355566,"  872.37",327,4,1,1
"24",220,"right","SHINEd_Peach.jpg","congruent","n",655.255804,"j","j","right","(862, 362)",323,1,690.658290345122,137.132311688734," 1952.73",134,3,1,1
"24",221,"left","SHINEd_Tape_Scotch.jpg","congruent","m",484.229059,"f","f","left","(148, 362)",228,1,519.967555898299,-33.5584227580888,"  930.35",328,4,1,1
"24",222,"left","SHINEd_Bus_DoubleDecker.jpg","congruent","m",504.54344,"f","f","left","(148, 362)",184,1,540.617947451476,-12.9080312049114," 5100.95",289,4,1,1
"24",223,"right","SHINEd_tentacle.jpg","congruent","n",683.288557,"j","j","right","(862, 362)",247,1,719.699075004654,166.173096348266," 2126.10",107,3,1,1
"24",224,"left","SHINEd_Leaf_Green.jpg","incongruent","n",577.10859,"j","j","right","(148, 362)",448,1,613.855118557831,60.3291399014433," 2264.09",401,3,1,1
"24",225,"left","SHINEd_dove.jpg","incongruent","n",485.105926,"j","j","right","(148, 362)",308,1,522.188465111008,-31.3375135453794," 1353.09",113,2,0,0
"24",226,"right","SHINEd_Coral.jpg","congruent","n",551.72395,"j","j","right","(862, 362)",455,1,589.142499664186,35.6165210077979," 1742.46",149,3,1,1
"24",227,"right","SHINEd_FireHydrant.jpg","incongruent","m",644.977388,"f","f","left","(862, 362)",167,1,682.731948217363,129.205969560975," 2164.91",432,4,0,0
"24",228,"right","SHINEd_Snowboard.jpg","incongruent","m",584.077814,"f","f","left","(862, 362)",23,1,622.16838477054,68.6424061141526," 2276.56",420,2,0,0
