"participant","trial_index","screenposition","stimulus","trialtype","classifyenc","rt","response","responsecorrect","responsecorrect_side","screenlocation","stimnum","acc","rtResidual","rtResidualC","rt_rec","trialno_rec","ratingConfidence","acc_rec","memoryHits.hc"
"29",1,"left","SHINEd_Bandage_Adhesive.jpg","incongruent","m",590.115809,"j","j","right","(148, 362)",107,1,606.916660480419,11.7588338697995,"  845.48",287,3,1,1
"29",2,"left","SHINEd_Cauliflower.jpg","congruent","n",873.255989,"j","f","left","(148, 362)",291,0,889.910068449705,294.752241839085," 1482.11",220,3,1,1
"29",3,"right","SHINEd_Bag_Camera.jpg","congruent","m",739.161821,"f","j","right","(862, 362)",216,0,755.66912841899,160.511301808371," 1159.32",221,3,0,0
"29",4,"left","SHINEd_SpongeScrubbing.jpg","incongruent","m",NA,"miss","j","right","(148, 362)",139,0,NA,NA," 2781.12",97,2,0,0
"29",5,"left","SHINEd_dates_fresh.jpg","congruent","n",699.266791,"j","f","left","(148, 362)",319,0,715.480554357562,120.322727746943," 4743.01",410,2,0,0
"29",6,"right","SHINEd_blackberry.jpg","incongruent","n",NA,"miss","f","left","(862, 362)",280,0,NA,NA," 1689.20",296,4,1,1
"29",7,"left","SHINEd_organutan.jpg","congruent","n",763.478951,"f","f","left","(148, 362)",343,1,779.399170296134,184.241343685514," 1724.90",54,4,1,1
"29",8,"left","SHINEd_PaperCutter.jpg","incongruent","m",686.181478,"j","j","right","(148, 362)",31,1,701.95492526542,106.7970986548," 1407.95",262,4,1,1
"29",9,"left","SHINEd_turkey.jpg","congruent","n",568.376812,"f","f","left","(148, 362)",391,1,584.003487234706,-11.154339375914," 1477.46",419,1,1,NA
"29",10,"left","SHINEd_Snowboard.jpg","incongruent","m",660.647899,"j","j","right","(148, 362)",23,1,676.127802203991,80.969975593372," 1838.80",354,3,1,1
"29",11,"left","SHINEd_bear.jpg","congruent","n",607.143297,"f","f","left","(148, 362)",271,1,622.476428173277,27.3186015626577," 1447.01",56,4,1,1
"29",12,"left","SHINEd_Cable_AudioSplitter.jpg","incongruent","m",580.157686,"j","j","right","(148, 362)",91,1,595.344045142563,0.186218531943653," 1169.20",285,1,1,NA
"29",13,"right","SHINEd_Boombox.jpg","congruent","m",680.096659,"j","j","right","(862, 362)",92,1,695.136246111849,99.9784195012296," 4239.38",170,1,1,NA
"29",14,"left","SHINEd_Playard.jpg","incongruent","m",627.032442,"j","j","right","(148, 362)",59,1,641.925257081135,46.7674304705153," 1904.69",414,2,0,0
"29",15,"left","SHINEd_Hedgehog.jpg","congruent","n",645.619272,"f","f","left","(148, 362)",243,1,660.365315050421,65.2074884398013," 1561.12",145,3,1,1
"29",16,"left","SHINEd_Car_Sedan.jpg","incongruent","m",753.384167,"j","j","right","(148, 362)",183,1,767.983438019707,172.825611409087," 1445.17",438,4,0,0
"29",17,"right","SHINEd_Bus_DoubleDecker.jpg","congruent","m",774.888392,"j","j","right","(862, 362)",184,1,789.340890988992,194.183064378373,"  224.96",390,2,0,0
"29",18,"right","SHINEd_alpaca_fo.jpg","incongruent","n",746.023477,"f","f","left","(862, 362)",400,1,760.329203958278,165.171377347659," 1157.13",372,3,0,0
"29",19,"left","SHINEd_Dress_Blue.jpg","incongruent","m",863.58025,"j","j","right","(148, 362)",3,1,877.739204927564,282.581378316945,"   50.04",367,2,0,0
"29",20,"right","SHINEd_Fan_Ceiling.jpg","congruent","m",659.130882,"j","j","right","(862, 362)",48,1,673.14306489685,77.9852382862306," 8178.82",362,3,0,0
"29",21,"left","SHINEd_Dresser.jpg","incongruent","m",437.629346,"j","j","right","(148, 362)",203,1,451.494756866136,-143.663069744484," 1374.45",258,1,0,0
"29",22,"left","SHINEd_WateringCan_PlasticDarkGreen.jpg","incongruent","m",401.34448,"j","j","right","(148, 362)",215,1,415.063118835422,-180.094707775198,"  823.92",363,3,1,1
"29",23,"left","SHINEd_edamame.jpg","congruent","n",612.473625,"f","f","left","(148, 362)",303,1,626.045491804708,30.8876651940882," 1502.51",112,4,1,1
"29",24,"left","SHINEd_Binoculars.jpg","incongruent","m",551.468476,"j","j","right","(148, 362)",199,1,564.893570773994,-30.2642558366259," 1309.76",434,4,1,1
"29",25,"right","SHINEd_Card_TwoSpade.jpg","congruent","m",570.806316,"j","j","right","(862, 362)",88,1,584.084638743279,-11.07318786734," 1696.21",218,4,1,1
"29",26,"left","SHINEd_Basket_Plastic.jpg","incongruent","m",446.590964,"j","j","right","(148, 362)",211,1,459.722514712565,-135.435311898054,"  821.48",358,4,1,1
"29",27,"right","SHINEd_CinderBlock.jpg","congruent","m",452.298866,"j","j","right","(862, 362)",108,1,465.283644681851,-129.874181928768," 2594.33",260,3,1,1
"29",28,"right","SHINEd_GasStation.jpg","congruent","m",533.875295,"j","j","right","(862, 362)",168,1,546.713301651137,-48.4445249594824," 3110.74",375,4,0,0
"29",29,"left","SHINEd_Shoes_Pumps.jpg","incongruent","m",554.862982,"j","j","right","(148, 362)",151,1,567.554216620423,-27.6036099901966," 2323.54",8,4,0,0
"29",30,"right","SHINEd_Oneholepunch.jpg","congruent","m",558.41228,"j","j","right","(862, 362)",76,1,570.956742589709,-24.2010840209107,"  975.27",400,1,0,0
"29",31,"left","SHINEd_whistle.jpg","incongruent","m",554.314611,"j","j","right","(148, 362)",79,1,566.712301558995,-28.4455250516249," 1158.47",185,2,1,NA
"29",32,"left","SHINEd_Box_Staples.jpg","incongruent","m",397.051449,"j","j","right","(148, 362)",67,1,409.302367528281,-185.855459082339,"  887.64",154,2,1,NA
"29",33,"left","SHINEd_Panda.jpg","congruent","n",561.560489,"f","f","left","(148, 362)",251,1,573.664635497566,-21.4931911130532," 1339.44",397,2,0,0
"29",34,"right","SHINEd_raspberry.jpg","incongruent","n",606.0721,"f","f","left","(862, 362)",456,1,618.029474466852,22.8716478562327," 1400.00",99,2,0,0
"29",35,"right","SHINEd_Cologne.jpg","congruent","m",472.627011,"j","j","right","(862, 362)",116,1,484.437613436138,-110.720213174481," 1621.39",391,4,1,1
"29",36,"right","SHINEd_tapir copy.jpg","incongruent","n",493.776691,"f","f","left","(862, 362)",408,1,505.440521405424,-89.7173052051955,"18524.63",230,3,0,0
"29",37,"right","SHINEd_Hammer.jpg","congruent","m",681.447881,"j","j","right","(862, 362)",36,1,692.96493937471,97.8071127640904," 1261.51",343,3,0,0
"29",38,"left","SHINEd_CapGraduation.jpg","incongruent","m",587.566426,"j","j","right","(148, 362)",187,1,598.936712343996,3.77888573337619," 1084.71",94,4,1,1
"29",39,"left","SHINEd_Potato.jpg","congruent","n",912.244672,"f","f","left","(148, 362)",423,1,923.468186313282,328.310359702662," 3485.66",401,2,0,0
"29",40,"right","SHINEd_blueberries.jpg","incongruent","n",652.395815,"f","f","left","(862, 362)",232,1,663.472557282567,68.3147306719479,"  143.63",77,2,0,0
"29",41,"left","SHINEd_pistachios-.jpg","congruent","n",799.310271,"f","f","left","(148, 362)",411,1,810.240241251853,215.082414641234,"  895.39",277,1,1,NA
"29",42,"right","SHINEd_Pepper_Green.jpg","incongruent","n",650.836029,"f","f","left","(862, 362)",372,1,661.619227221139,66.4614006105197," 1466.52",340,3,0,0
"29",43,"left","SHINEd_sanddollar.jpg","congruent","n",478.012137,"j","f","left","(148, 362)",295,0,488.648563190425,-106.509263420194," 1446.03",194,1,1,NA
"29",44,"left","SHINEd_Cup_Bathroom.jpg","incongruent","m",624.523022,"j","j","right","(148, 362)",51,1,635.012676159711,39.8548495490914," 1222.52",326,2,0,0
"29",45,"right","SHINEd_Ginger.jpg","incongruent","n",598.134718,"f","f","left","(862, 362)",236,1,608.477600128997,13.3197735183773,"20328.35",365,2,0,0
"29",46,"right","SHINEd_DoubleBass.jpg","congruent","m",624.310031,"j","j","right","(862, 362)",8,1,634.506141098283,39.3483144876631," 1228.57",210,3,0,0
"29",47,"right","SHINEd_Hazelnut.jpg","incongruent","n",589.609563,"f","f","left","(862, 362)",252,1,599.658901067569,4.501074456949," 1198.16",278,2,0,0
"29",48,"right","SHINEd_ant.jpg","incongruent","n",503.551968,"f","f","left","(862, 362)",328,1,513.454534036854,-81.7032925737651," 1501.28",344,3,0,0
"29",49,"right","SHINEd_Golf_Club.jpg","congruent","m",597.67404,"j","j","right","(862, 362)",132,1,607.42983400614,12.2720073955207," 8326.80",180,4,1,1
"29",50,"right","SHINEd_Lobster.jpg","incongruent","n",544.022887,"f","f","left","(862, 362)",288,1,553.631908975426,-41.5259176351934," 1961.18",325,3,1,1
"29",51,"left","SHINEd_Shark_GreatWhite.jpg","congruent","n",461.12781,"f","f","left","(148, 362)",287,1,470.590059944712,-124.567766665908,"  704.94",18,4,1,1
"29",52,"right","SHINEd_HedgeShears.jpg","congruent","m",345.577492,"j","j","right","(862, 362)",28,1,354.892969913998,-240.264856696622," 1094.02",60,2,0,0
"29",53,"left","SHINEd_LightBulb_White.jpg","incongruent","m",532.601632,"j","j","right","(148, 362)",47,1,541.770337883284,-53.3874887273358," 2359.45",126,4,1,1
"29",54,"right","SHINEd_BookShelf.jpg","congruent","m",450.035994,"j","j","right","(862, 362)",204,1,459.05792785257,-136.09989875805," 3411.47",379,1,0,0
"29",55,"right","SHINEd_SpiderWeb.jpg","incongruent","n",524.877714,"f","f","left","(862, 362)",348,1,533.752875821855,-61.4049507887641," 3082.15",23,4,1,1
"29",56,"right","SHINEd_Hand.jpg","incongruent","n",456.600403,"f","f","left","(862, 362)",284,1,465.328792791141,-129.829033819478," 1956.65",387,4,1,1
"29",57,"right","SHINEd_ScannerShoplifting.jpg","congruent","m",419.701414,"j","j","right","(862, 362)",100,1,428.283031760427,-166.874794850192,"  956.46",127,4,1,1
"29",58,"right","SHINEd_eggs.jpg","incongruent","n",647.308679,"f","f","left","(862, 362)",296,1,655.743524729713,60.5856981190935," 1624.11",291,1,0,0
"29",59,"left","SHINEd_clementine.jpg","congruent","n",498.508458,"f","f","left","(148, 362)",359,1,506.796531698999,-88.3612949116205," 2071.70",81,2,0,0
"29",60,"right","SHINEd_beetle.jpg","incongruent","n",440.52129,"f","f","left","(862, 362)",356,1,448.662591668285,-146.495234942335," 3149.13",302,2,0,0
"29",61,"right","SHINEd_Boar.jpg","incongruent","n",500.003265,"f","f","left","(862, 362)",264,1,507.997794637571,-87.1600319730488," 2343.93",389,2,1,NA
"29",62,"left","SHINEd_Seal_animal.jpg","congruent","n",478.954258,"f","f","left","(148, 362)",379,1,486.802015606857,-108.355811003763," 1559.19",396,4,0,0
"29",63,"left","SHINEd_Toolbox_RedOpen.jpg","incongruent","m",771.58419,"j","j","right","(148, 362)",39,1,779.285175576142,184.127348965523," 1592.16",39,1,0,0
"29",64,"right","SHINEd_Lighter_Yellow.jpg","congruent","m",568.011967,"j","j","right","(862, 362)",104,1,575.566180545428,-19.5916460651912," 1454.14",392,4,1,1
"29",65,"left","SHINEd_MalletJudge.jpg","incongruent","m",443.020205,"f","j","right","(148, 362)",35,0,450.427646514714,-144.730180095905,"  887.35",228,2,0,0
"29",66,"left","SHINEd_Iguana.jpg","congruent","n",608.016592,"j","f","left","(148, 362)",387,0,615.277261484,20.1194348733805," 1223.41",227,4,1,1
"29",67,"right","SHINEd_TigerWhite.jpg","incongruent","n",514.718189,"j","f","left","(862, 362)",440,0,521.832086453286,-73.3257401573336," 1577.55",157,2,1,NA
"29",68,"right","SHINEd_Sheep.jpg","incongruent","n",494.7916,"f","f","left","(862, 362)",300,1,501.758725422572,-93.3991011880477," 3254.61",289,1,0,0
"29",69,"right","SHINEd_Dart.jpg","congruent","m",498.613521,"j","j","right","(862, 362)",20,1,505.433874391858,-89.7239522187619," 2504.20",79,4,1,1
"29",70,"right","SHINEd_Lettuce_GreenLeaf.jpg","incongruent","n",797.562438,"f","f","left","(862, 362)",248,1,804.236019361143,209.078192750524," 1016.56",167,2,1,NA
"29",71,"right","SHINEd_ornament.jpg","congruent","m",642.666198,"j","j","right","(862, 362)",224,1,649.193007330429,54.0351807198099," 8837.73",433,2,0,0
"29",72,"right","SHINEd_dove.jpg","incongruent","n",429.446112,"f","f","left","(862, 362)",308,1,435.826149299715,-159.331677310904,"  782.09",313,2,1,NA
"29",73,"right","SHINEd_Ball_Football.jpg","congruent","m",465.779977,"j","j","right","(862, 362)",128,1,472.013242269001,-123.144584341618," 2079.14",208,2,0,0
"29",74,"left","SHINEd_Candleholder_LampShaped.jpg","incongruent","m",564.87883,"j","j","right","(148, 362)",111,1,570.965323238287,-24.1925033723326," 3462.56",85,2,1,NA
"29",75,"left","SHINEd_Stingray.jpg","congruent","n",607.861273,"j","f","left","(148, 362)",315,0,613.800994207573,18.6431675969533,"  944.17",95,2,1,NA
"29",76,"right","SHINEd_alarm.jpg","congruent","m",660.261343,"j","j","right","(862, 362)",96,1,666.054292176859,70.8964655662392,"11647.46",406,2,1,NA
"29",77,"right","SHINEd_Dill.jpg","incongruent","n",447.853792,"f","f","left","(862, 362)",256,1,453.499969146145,-141.657857464475,"  824.95",236,4,1,1
"29",78,"right","SHINEd_Hat_Explorer.jpg","congruent","m",594.698567,"j","j","right","(862, 362)",188,1,600.197972115431,5.04014550481095," 1678.31",108,2,0,0
"29",79,"right","SHINEd_Cougar.jpg","incongruent","n",614.305665,"f","f","left","(862, 362)",276,1,619.658298084716,24.5004714740968,"  766.76",174,4,0,0
"29",80,"right","SHINEd_Cassette_Audio.jpg","congruent","m",554.487876,"j","j","right","(862, 362)",148,1,559.693737054002,-35.4640895566173," 1092.46",295,1,1,NA
"29",81,"left","SHINEd_Fence_Wooden.jpg","incongruent","m",469.772826,"j","j","right","(148, 362)",163,1,474.831915023288,-120.325911587331," 1151.17",207,3,0,0
"29",82,"right","SHINEd_Glasses_Reading.jpg","congruent","m",656.91272,"j","j","right","(862, 362)",200,1,661.825036992574,66.6672103819544," 1289.66",355,3,0,0
"29",83,"right","SHINEd_Pig.jpg","incongruent","n",492.655747,"f","f","left","(862, 362)",424,1,497.42129196186,-97.7365346487597," 1046.71",186,2,1,NA
"29",84,"right","SHINEd_Guitar_Acoustic.jpg","congruent","m",361.814299,"j","j","right","(862, 362)",12,1,366.433071931146,-228.724754679474,"  824.85",182,3,1,1
"29",85,"right","SHINEd_Squid_Pink.jpg","incongruent","n",501.928148,"f","f","left","(862, 362)",336,1,506.400148900432,-88.757677710188,"  853.53",91,1,0,0
"29",86,"right","SHINEd_Lock_Combination.jpg","congruent","m",474.300617,"j","j","right","(862, 362)",64,1,478.625845869717,-116.531980740902," 1687.91",9,4,0,0
"29",87,"left","SHINEd_Ferret.jpg","congruent","n",531.717114,"f","f","left","(148, 362)",239,1,535.895570839003,-59.2622557716162,"  481.51",189,3,0,0
"29",88,"left","SHINEd_Razor.jpg","incongruent","m",512.987129,"j","j","right","(148, 362)",119,1,517.018813808289,-78.1390128023304," 1239.51",142,2,0,0
"29",89,"right","SHINEd_Bib.jpg","congruent","m",660.634824,"j","j","right","(862, 362)",136,1,664.519736777575,69.3619101669555," 1553.51",80,3,0,0
"29",90,"right","SHINEd_lorises.jpg","incongruent","n",465.255665,"f","f","left","(862, 362)",428,1,468.993805746861,-126.164020863759,"  927.73",317,2,1,NA
"29",91,"right","SHINEd_Kangaroo.jpg","incongruent","n",548.730539,"f","f","left","(862, 362)",312,1,552.321907716147,-42.8359188944728," 1524.51",111,2,1,NA
"29",92,"left","SHINEd_Hippopotamus.jpg","congruent","n",744.075343,"f","f","left","(148, 362)",367,1,747.519939685433,152.362113074813," 3430.54",256,1,0,0
"29",93,"left","SHINEd_Microwave.jpg","incongruent","m",466.13942,"j","j","right","(148, 362)",155,1,469.437244654718,-125.720581955901,"  928.41",253,2,0,0
"29",94,"right","SHINEd_Boots_KneeHigh.jpg","congruent","m",501.695342,"j","j","right","(862, 362)",152,1,504.846394624004,-90.3114319866152," 2518.32",430,3,1,1
"29",95,"right","SHINEd_Scorpion.jpg","incongruent","n",570.716367,"f","f","left","(862, 362)",396,1,573.72064759329,-21.4371790173293," 1910.45",160,3,1,1
"29",96,"left","SHINEd_Tractor_Orange.jpg","incongruent","m",476.90916,"j","j","right","(148, 362)",175,1,479.766668562576,-115.391158048043,"  926.37",50,2,0,0
"29",97,"right","SHINEd_Light_Traffic.jpg","congruent","m",609.489518,"j","j","right","(862, 362)",180,1,612.200254531862,17.0424279212424," 2650.95",195,4,0,0
"29",98,"left","SHINEd_Stapler_Regular.jpg","incongruent","m",460.10994,"j","j","right","(148, 362)",43,1,462.673904501148,-132.483922109472,"  860.97",143,3,1,1
"29",99,"right","SHINEd_CanOpener.jpg","congruent","m",599.635304,"j","j","right","(862, 362)",160,1,602.052496470434,6.89466985981418," 6150.08",342,2,0,0
"29",100,"left","SHINEd_FireHydrant.jpg","incongruent","m",580.162541,"j","j","right","(148, 362)",167,1,582.43296143972,-12.7248651708999," 4557.97",211,4,0,0
"29",101,"left","SHINEd_Belt.jpg","incongruent","m",399.034322,"j","j","right","(148, 362)",195,1,401.157970409005,-193.999856201614," 1008.91",364,2,1,NA
"29",102,"left","SHINEd_tooth.jpg","congruent","n",801.670631,"f","f","left","(148, 362)",363,1,803.647507378291,208.489680767672," 2116.50",125,4,0,0
"29",103,"right","SHINEd_HorseshoeCrab.jpg","incongruent","n",774.715665,"f","f","left","(862, 362)",260,1,776.545769347577,181.387942736958," 1104.01",124,2,0,0
"29",104,"left","SHINEd_beluga.jpg","congruent","n",499.993485,"j","f","left","(148, 362)",431,0,501.676817316863,-93.4810092937565," 1278.59",132,3,0,0
"29",105,"right","SHINEd_RibbonSpool.jpg","congruent","m",518.794996,"j","j","right","(862, 362)",80,1,520.331556286149,-74.8262703244707," 1296.25",59,4,1,1
"29",106,"right","SHINEd_Pear_Yellow.jpg","incongruent","n",723.053131,"f","f","left","(862, 362)",416,1,724.442919255435,129.285092644815," 1300.75",435,2,0,0
"29",107,"left","SHINEd_Sand.jpg","congruent","n",854.002359,"f","f","left","(148, 362)",279,1,855.245375224721,260.087548614101," 1789.69",184,3,0,0
"29",108,"right","SHINEd_maggotts.jpg","incongruent","n",481.432797,"f","f","left","(862, 362)",392,1,482.529041194006,-112.628785416613," 2893.24",118,4,0,0
"29",109,"right","SHINEd_Bottle_Bleach.jpg","congruent","m",742.114188,"j","j","right","(862, 362)",212,1,743.063660163292,147.905833552673,"  927.09",284,1,1,NA
"29",110,"right","SHINEd_papaya.jpg","incongruent","n",561.790927,"f","f","left","(862, 362)",292,1,562.593627132578,-32.5641994780413," 1589.80",179,3,0,0
"29",111,"right","SHINEd_Outhouse.jpg","congruent","m",540.042493,"j","j","right","(862, 362)",164,1,540.698421101864,-54.4594055087554,"  742.27",312,4,1,1
"29",112,"left","SHINEd_CDstack.jpg","incongruent","m",495.650161,"j","j","right","(148, 362)",15,1,496.15931707115,-98.9985095394695,"  903.74",84,3,0,0
"29",113,"left","SHINEd_aloe.jpg","congruent","n",531.677197,"f","f","left","(148, 362)",299,1,532.039581040436,-63.1182455701837,"  831.00",329,2,0,0
"29",114,"left","SHINEd_Chimpanzee.jpg","congruent","n",527.176572,"f","f","left","(148, 362)",255,1,527.392184009722,-67.7656426008979," 1583.79",34,3,0,0
"29",115,"right","SHINEd_housefly.jpg","incongruent","n",554.672485,"f","f","left","(862, 362)",420,1,554.741324979008,-40.4165016316119," 2521.03",106,4,0,0
"29",116,"right","SHINEd_Clothespin_Red.jpg","congruent","m",814.652751,"j","j","right","(862, 362)",60,1,814.574818948293,219.416992337674," 3796.58",86,3,0,0
"29",117,"right","SHINEd_Camel_Bactrian.jpg","incongruent","n",537.008567,"f","f","left","(862, 362)",344,1,536.783862917579,-58.3739636930403,"  590.82",270,3,0,0
"29",118,"left","SHINEd_Swan.jpg","congruent","n",718.802037,"f","f","left","(148, 362)",443,1,718.430560886865,123.272734276246,"  865.88",147,2,1,NA
"29",119,"right","SHINEd_vulture.jpg","incongruent","n",839.321453,"j","f","left","(862, 362)",436,0,838.803204856151,243.645378245532," 1189.76",321,2,1,NA
"29",120,"left","SHINEd_alligator.jpg","congruent","n",547.639496,"f","f","left","(148, 362)",355,1,546.974475825437,-48.1833507851826," 1688.13",153,3,1,1
"29",121,"left","SHINEd_KeyHook_Empty.jpg","incongruent","m",574.820952,"j","j","right","(148, 362)",223,1,574.009159794723,-21.1486668158967," 6485.96",269,2,0,0
"29",122,"left","SHINEd_Seashell_RoseMurex.jpg","congruent","n",665.389978,"f","f","left","(148, 362)",327,1,664.431413764009,69.2735871533892," 1927.38",100,3,1,1
"29",123,"right","SHINEd_sloth.jpg","incongruent","n",582.279012,"f","f","left","(862, 362)",304,1,581.173675733294,-13.984150877325," 1488.55",158,3,1,1
"29",124,"left","SHINEd_ashtray.jpg","incongruent","m",736.399978,"j","j","right","(148, 362)",227,1,735.14786970258,139.990043091961," 1830.96",224,4,1,1
"29",125,"left","SHINEd_mapleleaf.jpg","congruent","n",570.423221,"f","f","left","(148, 362)",335,1,569.024340671866,-26.1334859387533," 1950.98",453,1,0,0
"29",126,"right","SHINEd_fig.jpg","incongruent","n",590.644676,"f","f","left","(862, 362)",412,1,589.099023641152,-6.0588029694674," 1889.84",68,1,0,0
"29",127,"right","SHINEd_Exercise_Bike.jpg","congruent","m",769.546996,"j","j","right","(862, 362)",24,1,767.854571610438,172.696744999818,"  840.27",116,2,0,0
"29",128,"right","SHINEd_Cow.jpg","incongruent","n",540.519235,"f","f","left","(862, 362)",320,1,538.680038579724,-56.4777880308957," 3431.86",2,3,0,0
"29",129,"right","SHINEd_Pitcher.jpg","congruent","m",601.405372,"j","j","right","(862, 362)",56,1,599.41940354901,4.26157693839025," 1372.97",399,4,0,0
"29",130,"right","SHINEd_Banana.jpg","incongruent","n",555.851969,"f","f","left","(862, 362)",376,1,553.719228518296,-41.4385980923239," 2087.45",223,4,1,1
"29",131,"right","SHINEd_Button.jpg","congruent","m",583.519038,"j","j","right","(862, 362)",4,1,581.239525487581,-13.918301123038," 2400.17",239,2,0,0
"29",132,"right","SHINEd_FireExtinguisher.jpg","congruent","m",586.562521,"j","j","right","(862, 362)",112,1,584.136236456867,-11.0215901537523,"  789.11",334,4,1,1
"29",133,"left","SHINEd_Ship_Model.jpg","incongruent","m",583.163801,"j","j","right","(148, 362)",83,1,580.590744426153,-14.5670821844663,"  807.11",26,4,1,1
"29",134,"left","SHINEd_Peach.jpg","congruent","n",457.767816,"j","f","left","(148, 362)",323,0,455.047987395439,-140.10983921518," 1294.02",297,2,1,NA
"29",135,"left","SHINEd_Bat_Baseball.jpg","incongruent","m",587.98826,"j","j","right","(148, 362)",127,1,585.121659364725,-10.0361672458946," 1325.02",138,2,0,0
"29",136,"right","SHINEd_rhino.jpg","incongruent","n",481.024863,"f","f","left","(862, 362)",352,1,478.011490334011,-117.146336276609,"  941.98",247,2,0,0
"29",137,"right","SHINEd_Earrings_Dangling.jpg","congruent","m",500.151565,"f","j","right","(862, 362)",196,0,496.991420303297,-98.1664063073229," 3093.43",103,4,1,1
"29",138,"right","SHINEd_Fridge.jpg","congruent","m",656.338266,"j","j","right","(862, 362)",44,1,653.031349272582,57.873522661963," 1182.11",133,3,0,0
"29",139,"right","SHINEd_Buffalo.jpg","incongruent","n",587.175309,"f","f","left","(862, 362)",432,1,583.721620241868,-11.4362063687512," 1257.08",141,2,1,NA
"29",140,"right","SHINEd_Hammock.jpg","congruent","m",502.785919,"j","j","right","(862, 362)",208,1,499.185458211154,-95.9723683994653," 1260.59",385,4,1,1
"29",141,"left","SHINEd_Organ.jpg","incongruent","m",577.150947,"j","j","right","(148, 362)",7,1,573.40371418044,-21.7541124301794," 3303.69",249,2,0,0
"29",142,"right","SHINEd_Tape_Scotch.jpg","congruent","m",550.032868,"j","j","right","(862, 362)",228,1,546.138863149726,-49.0189634608935," 1184.31",357,4,1,1
"29",143,"left","SHINEd_DryRack_Dishes.jpg","incongruent","m",608.983123,"j","j","right","(148, 362)",135,1,604.942346119012,9.78451950839233," 1680.08",137,4,0,0
"29",144,"right","SHINEd_Box_Package.jpg","congruent","m",550.089016,"j","j","right","(862, 362)",220,1,545.901467088298,-49.2563595223218," 2805.98",305,2,1,NA
"29",145,"left","SHINEd_MousepadAndMouse.jpg","incongruent","m",722.003341,"j","j","right","(148, 362)",99,1,717.669020057584,122.511193446964," 1327.21",307,4,1,1
"29",146,"left","SHINEd_Bus_School.jpg","incongruent","m",526.403117,"j","j","right","(148, 362)",171,1,521.922024026869,-73.2358025837501," 1372.92",107,4,1,1
"29",147,"right","SHINEd_SnowGlobe.jpg","congruent","m",579.268835,"j","j","right","(862, 362)",84,1,574.640969996155,-20.5168566144642," 1249.04",281,3,0,0
"29",148,"right","SHINEd_gazelle.jpg","incongruent","n",502.153481,"f","f","left","(862, 362)",268,1,497.378843965441,-97.7789826451783,"  757.34",14,4,1,1
"29",149,"left","SHINEd_Caribou.jpg","congruent","n",697.499943,"f","f","left","(148, 362)",435,1,692.578533934727,97.4207073241076,"  945.69",254,2,0,0
"29",150,"left","SHINEd_moth.jpg","congruent","n",718.18789,"f","f","left","(148, 362)",427,1,713.119708904013,117.961882293393," 1240.33",261,4,0,0
"29",151,"left","SHINEd_white sesame.jpg","congruent","n",569.712625,"f","f","left","(148, 362)",371,1,564.497671873299,-30.6601547373207,"  761.45",64,4,1,1
"29",152,"right","SHINEd_bullrush.jpg","incongruent","n",565.155667,"j","f","left","(862, 362)",324,0,559.793941842585,-35.3638847680349," 1192.13",32,4,1,1
"29",153,"left","SHINEd_Harp.jpg","incongruent","m",544.915464,"j","j","right","(148, 362)",11,1,539.406966811871,-55.7508597987489," 4431.22",456,3,1,1
"29",154,"left","SHINEd_Puffin.jpg","congruent","n",483.760583,"f","f","left","(148, 362)",231,1,478.105313781156,-117.052512829463,"  999.01",386,2,1,NA
"29",155,"right","SHINEd_Key_Car.jpg","congruent","m",654.063022,"j","j","right","(862, 362)",176,1,648.260980750442,53.1031541398228," 2183.72",96,3,1,1
"29",156,"left","SHINEd_zebra.jpg","congruent","n",385.732649,"f","f","left","(148, 362)",447,1,379.783835719728,-215.373990890891," 2677.70",382,2,1,NA
"29",157,"left","SHINEd_Box_GiftTopView.jpg","incongruent","m",693.987849,"j","j","right","(148, 362)",219,1,687.892263689014,92.7344370783945," 8049.65",413,4,1,1
"29",158,"left","SHINEd_Oars.jpg","incongruent","m",578.14549,"j","j","right","(148, 362)",19,1,571.9031326583,-23.2546939523196," 2886.42",455,1,1,NA
"29",159,"left","SHINEd_feather.jpg","congruent","n",468.864639,"f","f","left","(148, 362)",415,1,462.475509627586,-132.682316983034," 2076.44",388,2,0,0
"29",160,"left","SHINEd_Nuts_Peanuts.jpg","congruent","n",513.837121,"f","f","left","(148, 362)",235,1,507.301219596872,-87.8566070137479," 1821.78",217,1,1,NA
"29",161,"left","SHINEd_firetruck.jpg","incongruent","m",637.228239,"j","j","right","(148, 362)",179,1,630.545565566158,35.387738955538," 2190.18",348,3,1,1
"29",162,"left","SHINEd_alfalfa.jpg","congruent","n",514.27091,"f","f","left","(148, 362)",283,1,507.441464535443,-87.7163620751762," 1255.96",425,3,0,0
"29",163,"left","SHINEd_Notepad.jpg","incongruent","m",485.94147,"j","j","right","(148, 362)",71,1,478.965252504729,-116.19257410589," 1470.08",150,3,0,0
"29",164,"left","SHINEd_tree.jpg","congruent","n",840.436685,"f","f","left","(148, 362)",375,1,833.313695474015,238.155868863396,"  886.89",303,2,0,0
"29",165,"right","SHINEd_Leaf_Green.jpg","incongruent","n",507.5081,"f","f","left","(862, 362)",448,1,500.238338443301,-94.9194881673185," 2264.74",319,2,0,0
"29",166,"right","SHINEd_Clam.jpg","incongruent","n",607.944602,"f","f","left","(862, 362)",340,1,600.528068412587,5.37024180196734," 5742.46",16,4,0,0
"29",167,"left","SHINEd_Olives.jpg","congruent","n",635.889916,"f","f","left","(148, 362)",419,1,628.326610381873,33.1687837712532,"  857.19",349,3,1,1
"29",168,"right","SHINEd_Squash_Butternut.jpg","incongruent","n",550.678317,"f","f","left","(862, 362)",444,1,542.968239351159,-52.189587259461," 2739.48",377,3,1,1
"29",169,"right","SHINEd_Garbage_GreenBin.jpg","congruent","m",594.961884,"j","j","right","(862, 362)",144,1,587.105034320444,-8.05279229017503," 1710.55",193,1,0,0
"29",170,"right","SHINEd_DrainPlug.jpg","congruent","m",823.466123,"j","j","right","(862, 362)",140,1,815.46250128973,220.304674679111,"  676.39",209,2,0,0
"29",171,"left","SHINEd_puffer-fish.jpg","congruent","n",851.428648,"f","f","left","(148, 362)",339,1,843.278254259016,248.120427648397," 1325.73",191,3,0,0
"29",172,"left","SHINEd_Light_Siren.jpg","incongruent","m",581.466971,"j","j","right","(148, 362)",95,1,573.169805228302,-21.9880213823175,"  915.29",272,3,0,0
"29",173,"left","SHINEd_Fish_Swordfish.jpg","congruent","n",576.417535,"f","f","left","(148, 362)",331,1,567.973597197588,-27.1842294130316," 1296.71",356,4,1,1
"29",174,"right","SHINEd_Lion.jpg","incongruent","n",653.824299,"f","f","left","(862, 362)",316,1,645.233589166874,50.0757625562543," 1638.30",409,2,0,0
"29",175,"left","SHINEd_OnionRed.jpg","congruent","n",527.978933,"f","f","left","(148, 362)",383,1,519.24145113616,-75.9163754744599," 1479.67",393,1,1,NA
"29",176,"left","SHINEd_goldfish.jpg","congruent","n",451.863422,"f","f","left","(148, 362)",275,1,442.979168105446,-152.178658505174," 1888.08",229,4,0,0
"29",177,"right","SHINEd_Bird_CanadianGoose.jpg","incongruent","n",490.187919,"f","f","left","(862, 362)",388,1,481.156893074731,-114.000933535888," 1292.00",139,1,0,0
"29",178,"right","SHINEd_SpinningWheel.jpg","congruent","m",915.991193,"j","j","right","(862, 362)",124,1,906.813395044017,311.655568433398,"  975.98",135,1,0,0
"29",179,"right","SHINEd_anteater.jpg","incongruent","n",528.175284,"f","f","left","(862, 362)",368,1,518.850714013303,-76.3071125973164," 4270.91",441,2,0,0
"29",180,"left","SHINEd_bat.jpg","congruent","n",618.424084,"f","f","left","(148, 362)",403,1,608.952741982589,13.7949153719695," 1256.11",251,3,1,1
"29",181,"left","SHINEd_sunflowers.jpg","congruent","n",606.776437,"f","f","left","(148, 362)",395,1,597.158322951875,2.00049634125532," 1582.79",311,4,1,1
"29",182,"right","SHINEd_Cucumber.jpg","incongruent","n",617.5894,"j","f","left","(862, 362)",364,0,607.824513921161,12.6666873105412,"  654.39",29,4,1,1
"29",183,"left","SHINEd_lime.jpg","congruent","n",846.313344,"f","f","left","(148, 362)",439,1,836.401685890447,241.243859279827,"  836.29",250,3,1,1
"29",184,"right","SHINEd_Pepper_Chili.jpg","incongruent","n",578.056697,"f","f","left","(862, 362)",240,1,567.998266859732,-27.1595597508871," 4694.04",408,1,1,NA
"29",185,"right","SHINEd_Shampoo.jpg","congruent","m",757.220237,"j","j","right","(862, 362)",120,1,747.015034829018,151.857208218399," 1374.72",69,1,0,0
"29",186,"left","SHINEd_KiddiePool.jpg","incongruent","m",600.544491,"j","j","right","(148, 362)",87,1,590.192516798304,-4.96530981231533," 1615.95",78,2,1,NA
"29",187,"right","SHINEd_CompassCardinal.jpg","congruent","m",677.184139,"j","j","right","(862, 362)",40,1,666.68539276759,71.5275661569705," 2831.58",71,2,0,0
"29",188,"left","SHINEd_Bowtie.jpg","incongruent","m",529.389953,"j","j","right","(148, 362)",191,1,518.744434736876,-76.4133918737436," 1551.27",440,2,1,NA
"29",189,"right","SHINEd_groundhog.jpg","incongruent","n",531.289799,"f","f","left","(862, 362)",404,1,520.497508706162,-74.6603179044577," 1288.13",394,3,0,0
"29",190,"left","SHINEd_penguin.jpg","congruent","n",598.677748,"f","f","left","(148, 362)",307,1,587.738685675448,-7.4191409351719," 1966.84",338,3,0,0
"29",191,"left","SHINEd_Crab.jpg","congruent","n",851.395483,"f","f","left","(148, 362)",259,1,840.309648644734,245.151822034114," 2815.91",395,2,1,NA
"29",192,"left","SHINEd_birdie.jpg","incongruent","m",599.608308,"j","j","right","(148, 362)",131,1,588.375701614019,-6.78212499660015,"  758.51",131,4,1,1
"29",193,"right","SHINEd_mint.jpg","incongruent","n",613.478233,"f","f","left","(862, 362)",360,1,602.098854583305,6.94102797268579,"  806.40",346,2,1,NA
"29",194,"right","SHINEd_LifeJacket_BlueYellow.jpg","congruent","m",696.426557,"j","j","right","(862, 362)",16,1,684.900406552591,89.7425799419716," 1140.36",35,4,1,1
"29",195,"left","SHINEd_Staircase_Curving.jpg","incongruent","m",564.34722,"j","j","right","(148, 362)",115,1,552.674297521877,-42.4835290887425," 1366.32",63,4,1,1
"29",196,"left","SHINEd_almond.jpg","congruent","n",584.277634,"f","f","left","(148, 362)",311,1,572.457939491163,-22.6998871194566," 1391.26",30,3,0,0
"29",197,"right","SHINEd_EspressoMachine.jpg","congruent","m",455.760556,"j","j","right","(862, 362)",156,1,443.794089460449,-151.363737150171," 1519.44",66,3,0,0
"29",198,"left","SHINEd_pine-cone-.jpg","congruent","n",820.913147,"f","f","left","(148, 362)",399,1,808.799908429735,213.642081819115," 1887.85",206,2,0,0
"29",199,"left","SHINEd_LetterMail.jpg","incongruent","m",799.517833,"j","j","right","(148, 362)",75,1,787.25782239902,192.099995788401,"  909.44",263,4,1,1
"29",200,"left","SHINEd_elbow.jpg","congruent","n",810.526383,"f","f","left","(148, 362)",263,1,798.119600368306,202.961773757687,"  862.79",36,4,1,1
"29",201,"right","SHINEd_seatAirplane.jpg","congruent","m",752.134126,"j","j","right","(862, 362)",172,1,739.580571337592,144.422744726973," 1812.83",283,1,1,NA
"29",202,"right","SHINEd_CoffeeBeans.jpg","incongruent","n",547.454793,"f","f","left","(862, 362)",332,1,534.754466306878,-60.4033603037415," 1397.61",398,3,1,1
"29",203,"left","SHINEd_tentacle.jpg","congruent","n",799.833527,"f","f","left","(148, 362)",247,1,786.986428276164,191.828601665544," 2379.27",156,4,1,1
"29",204,"left","SHINEd_Flower_Daisy.jpg","congruent","n",675.004313,"f","f","left","(148, 362)",351,1,662.01044224545,66.8526156348303," 1087.80",244,2,0,0
"29",205,"left","SHINEd_FloppyDisk.jpg","incongruent","m",518.664985,"j","j","right","(148, 362)",147,1,505.524342214736,-89.6334843958838," 2119.10",422,4,1,1
"29",206,"right","SHINEd_Plum.jpg","incongruent","n",512.832263,"f","f","left","(862, 362)",244,1,499.544848184022,-95.6129784265979," 3232.47",140,2,1,NA
"29",207,"left","SHINEd_Owl.jpg","congruent","n",740.130516,"f","f","left","(148, 362)",407,1,726.696329153307,131.538502542688," 1830.83",87,4,1,1
"29",208,"right","SHINEd_PassionFruit.jpg","incongruent","n",648.117473,"f","f","left","(862, 362)",452,1,634.536514122593,39.3786875119738,"  968.70",120,2,0,0
"29",209,"right","SHINEd_Celery.jpg","incongruent","n",612.323045,"f","f","left","(862, 362)",272,1,598.595314091879,3.43748748125961," 1370.22",25,4,1,1
"29",210,"left","SHINEd_Coral.jpg","congruent","n",608.230388,"f","f","left","(148, 362)",455,1,594.355885061165,-0.801941549454546," 2390.07",273,2,1,NA
"29",211,"right","SHINEd_Blackboard.jpg","congruent","m",522.587884,"j","j","right","(862, 362)",72,1,508.566609030451,-86.5912175801686," 1247.91",52,4,1,1
"29",212,"left","SHINEd_Crayon_Green.jpg","incongruent","m",751.17647,"f","j","right","(148, 362)",63,0,737.008422999737,141.850596389117," 1623.68",331,2,1,NA
"29",213,"left","SHINEd_KitchenCloth.jpg","incongruent","m",865.349473,"j","j","right","(148, 362)",143,1,851.034653969023,255.876827358403," 1415.16",444,3,0,0
"29",214,"right","SHINEd_PencilCase.jpg","congruent","m",709.539674,"j","j","right","(862, 362)",68,1,695.078082938309,99.920256327689," 3134.50",213,3,1,1
"29",215,"left","SHINEd_Bed_Hospital.jpg","incongruent","m",743.520355,"f","j","right","(148, 362)",207,0,728.911991907594,133.754165296975," 1826.82",412,1,0,0
"29",216,"left","SHINEd_Cage_Bird.jpg","incongruent","m",449.60652,"j","j","right","(148, 362)",123,1,434.85138487688,-160.306441733739,"  862.24",306,2,1,NA
"29",217,"left","SHINEd_tamarinds.jpg","congruent","n",582.173373,"f","f","left","(148, 362)",451,1,567.271465846166,-27.8863607644535," 1336.98",121,3,1,1
"29",218,"left","SHINEd_MannequinBust.jpg","incongruent","m",696.798003,"j","j","right","(148, 362)",103,1,681.749323815452,86.5914972048325," 5411.85",452,4,1,1
"29",219,"left","SHINEd_Stroller.jpg","incongruent","m",620.988634,"j","j","right","(148, 362)",55,1,605.793182784738,10.6353561741184,"  988.40",83,3,0,0
"29",220,"right","SHINEd_Tie.jpg","congruent","m",535.306027,"j","j","right","(862, 362)",192,1,519.963803754024,-75.1940228565959," 2750.23",448,2,1,NA
"29",221,"right","SHINEd_IroningBoard.jpg","congruent","m",468.406199,"j","j","right","(862, 362)",52,1,452.91720372331,-142.24062288731,"  935.38",146,3,1,1
"29",222,"left","SHINEd_Eggplant.jpg","congruent","n",535.731547,"f","f","left","(148, 362)",267,1,520.095779692595,-75.0620469180241,"  800.60",181,3,1,1
"29",223,"right","SHINEd_Bolt.jpg","congruent","m",459.18323,"j","j","right","(862, 362)",32,1,443.400690661881,-151.757135948738," 1721.84",245,4,1,1
"29",224,"left","SHINEd_Barbecue_Gas.jpg","incongruent","m",502.755456,"j","j","right","(148, 362)",159,1,486.826144631167,-108.331681979452," 1256.59",279,2,0,0
"29",225,"right","SHINEd_chick hatch.jpg","incongruent","n",482.367749,"f","f","left","(862, 362)",384,1,466.291665600453,-128.866161010166," 1542.78",265,4,1,1
"29",226,"left","SHINEd_Seahorse.jpg","congruent","n",575.369019,"f","f","left","(148, 362)",347,1,559.146163569739,-36.0116630408806,"  733.82",37,4,1,1
"29",227,"left","SHINEd_paddle ball.jpg","incongruent","m",529.121669,"j","j","right","(148, 362)",27,1,512.752041539025,-82.4057850715947," 1303.84",70,4,1,1
"29",228,"right","SHINEd_bee.jpg","incongruent","n",574.266018,"f","f","left","(862, 362)",380,1,557.749618508311,-37.4082081023088," 2055.29",12,4,1,1
