"participant","trial_index","screenposition","stimulus","trialtype","classifyenc","rt","response","responsecorrect","responsecorrect_side","screenlocation","stimnum","acc","rtResidual","rtResidualC","rt_rec","trialno_rec","ratingConfidence","acc_rec","memoryHits.hc"
"34",1,"left","SHINEd_Dog_ChowChow.jpg","incongruent","n",NA,"miss","j","right","(148, 362)",369,0,NA,NA," 1870.75",294,3,1,1
"34",2,"left","SHINEd_HotWaterBottle.jpg","congruent","m",948.767388,"f","f","left","(148, 362)",113,1,915.398553040957,266.014268524369," 1598.73",100,3,1,1
"34",3,"left","SHINEd_FlipFlop_PairBlue.jpg","congruent","m",551.048545,"f","f","left","(148, 362)",153,1,517.976353149285,-131.407931367302," 1543.85",263,3,1,1
"34",4,"left","SHINEd_Giraffe.jpg","incongruent","n",427.316486,"j","j","right","(148, 362)",381,1,394.540937257621,-254.843347258966," 1499.70",377,4,1,1
"34",5,"right","SHINEd_treestump.jpg","congruent","n",775.985396,"j","j","right","(862, 362)",414,1,743.506490365957,94.1222058493699," 1031.82",123,4,1,1
"34",6,"left","SHINEd_Leaf_Clover.jpg","incongruent","n",619.670693,"j","j","right","(148, 362)",449,1,587.488430474294,-61.8958540422939," 1229.44",456,4,1,1
"34",7,"right","SHINEd_pomegrant.jpg","congruent","n",695.029214,"j","j","right","(862, 362)",354,1,663.14359458263,13.7593100660423," 1281.38",75,4,1,1
"34",8,"right","SHINEd_Mirror_Makeup.jpg","incongruent","m",659.840512,"f","f","left","(862, 362)",122,1,628.251535690966,-21.1327488256215," 1537.03",160,3,1,1
"34",9,"right","SHINEd_mushroom_other.jpg","congruent","n",518.091529,"j","j","right","(862, 362)",426,1,486.799195799302,-162.585088717285," 1159.77",310,4,1,1
"34",10,"left","SHINEd_white_strawberries.jpg","incongruent","n",842.743718,"j","j","right","(148, 362)",417,1,811.748027907639,162.363743391051," 1188.63",280,4,1,1
"34",11,"left","SHINEd_Knife_Camping.jpg","congruent","m",741.1478,"f","f","left","(148, 362)",37,1,710.448753015975,61.064468499387," 1390.34",74,4,1,1
"34",12,"right","SHINEd_Clip_Paper.jpg","incongruent","m",NA,"miss","f","left","(862, 362)",66,0,NA,NA," 1539.68",423,2,1,NA
"34",13,"right","SHINEd_Goat.jpg","congruent","n",653.618562,"j","j","right","(862, 362)",322,1,623.512801232647,-25.8714832839405," 1494.74",286,3,1,1
"34",14,"left","SHINEd_donkey.jpg","incongruent","n",634.09968,"j","j","right","(148, 362)",409,1,604.290562340983,-45.0937221756043," 3030.86",316,4,1,1
"34",15,"left","SHINEd_Megaphone.jpg","congruent","m",NA,"miss","f","left","(148, 362)",101,0,NA,NA," 1216.52",24,2,0,0
"34",16,"left","SHINEd_Quartz.jpg","incongruent","n",865.275102,"f","j","right","(148, 362)",401,0,836.059270557656,186.674986041068," 2800.27",2,3,1,1
"34",17,"left","SHINEd_DentalFloss.jpg","congruent","m",876.742384,"f","f","left","(148, 362)",117,1,847.823195665992,198.438911149404," 2161.77",373,2,1,NA
"34",18,"left","SHINEd_orchid.jpg","incongruent","n",839.48727,"j","j","right","(148, 362)",261,1,810.864724774328,161.48044025774," 2077.86",421,3,1,1
"34",19,"right","SHINEd_couch.jpg","incongruent","m",548.503305,"f","f","left","(862, 362)",202,1,520.177402882664,-129.206881633923,"  967.67",340,4,1,1
"34",20,"right","SHINEd_Cantaloupe.jpg","congruent","n",670.642369,"j","j","right","(862, 362)",338,1,642.613109991001,-6.77117452558707," 2867.59",88,3,1,1
"34",21,"left","SHINEd_dinosaur fossil.jpg","incongruent","n",844.581421,"j","j","right","(148, 362)",377,1,816.848805099337,167.464520582749,"  912.21",107,4,1,1
"34",22,"right","SHINEd_Deodorant.jpg","incongruent","m",655.249659,"f","f","left","(862, 362)",118,1,627.813686207673,-21.5705983089147," 2279.37",62,4,1,1
"34",23,"left","SHINEd_Boat_Colourful.jpg","congruent","m",466.637514,"f","f","left","(148, 362)",173,1,439.498184316009,-209.886100200578," 2630.48",35,4,1,1
"34",24,"right","SHINEd_Ball_Bowling.jpg","incongruent","m",508.432671,"j","f","left","(862, 362)",134,0,481.589984424345,-167.794300092242," 2457.41",18,4,1,1
"34",25,"left","SHINEd_Crown.jpg","congruent","m",NA,"miss","f","left","(148, 362)",193,0,NA,NA," 2275.25",448,4,1,1
"34",26,"right","SHINEd_Clarinet.jpg","incongruent","m",605.539424,"f","f","left","(862, 362)",6,1,579.290023641018,-70.0942608755698," 1409.71",385,4,1,1
"34",27,"right","SHINEd_Cherry.jpg","congruent","n",600.893938,"j","j","right","(862, 362)",258,1,574.941180749354,-74.4431037672336," 1036.12",106,3,1,1
"34",28,"right","SHINEd_wheat_stock.jpg","congruent","n",531.963786,"j","j","right","(862, 362)",358,1,506.30767185769,-143.076612658897," 1570.81",437,3,0,0
"34",29,"right","SHINEd_airpump.jpg","incongruent","m",527.314619,"f","f","left","(862, 362)",114,1,501.955147966026,-147.429136550561," 3031.14",7,1,0,0
"34",30,"right","SHINEd_eucalyptus.jpg","congruent","n",779.919959,"f","j","right","(862, 362)",282,0,754.857131074363,105.472846557775," 3049.30",19,3,1,1
"34",31,"left","SHINEd_Branch.jpg","incongruent","n",NA,"miss","j","right","(148, 362)",333,0,NA,NA," 1666.18",419,3,0,0
"34",32,"right","SHINEd_Lipstick.jpg","incongruent","m",644.712374,"f","f","left","(862, 362)",198,1,620.242832291035,-29.1414522255527," 1262.61",272,3,1,1
"34",33,"right","SHINEd_Bowl_Fruits.jpg","congruent","n",761.80311,"j","j","right","(862, 362)",434,1,737.630211399371,88.2459268827835," 1035.20",379,4,1,1
"34",34,"right","SHINEd_Glove_Rubber.jpg","incongruent","m",900.259222,"f","f","left","(862, 362)",138,1,876.382966507707,226.99868199112," 4407.48",195,2,1,NA
"34",35,"left","SHINEd_Switch_LightWhite.jpg","congruent","m",760.0182,"j","f","left","(148, 362)",57,0,736.438587616044,87.0543030994559," 2854.55",321,2,1,NA
"34",36,"right","SHINEd_Box_Notepaper.jpg","incongruent","m",939.581672,"j","f","left","(862, 362)",70,0,916.29870272438,266.914418207792," 1336.41",192,3,1,1
"34",37,"right","SHINEd_greenapple.jpg","congruent","n",856.899889,"j","j","right","(862, 362)",410,1,833.913562832716,184.529278316128," 3731.25",165,2,1,NA
"34",38,"left","SHINEd_red_panda.jpg","incongruent","n",850.981779,"f","j","right","(148, 362)",273,0,828.292095941052,178.907811424465," 2420.39",287,2,1,NA
"34",39,"right","SHINEd_Currants.jpg","congruent","n",943.067787,"j","j","right","(862, 362)",254,1,920.674747049388,271.290462532801," 1484.75",348,1,0,0
"34",40,"right","SHINEd_Boardgame_Chess.jpg","incongruent","m",594.95397,"f","f","left","(862, 362)",86,1,572.857573157725,-76.526711358863," 1345.41",265,4,1,1
"34",41,"left","SHINEd_Binder.jpg","congruent","m",662.821111,"f","f","left","(148, 362)",65,1,641.021357266061,-8.36292725052687," 4111.70",220,3,1,1
"34",42,"right","SHINEd_Briefcase_Leather.jpg","incongruent","m",396.77696,"f","f","left","(862, 362)",210,1,375.273849374397,-274.110435142191," 1233.48",119,3,1,1
"34",43,"left","SHINEd_RecordPlayer.jpg","congruent","m",902.687432,"j","f","left","(148, 362)",149,0,881.480964482733,232.096679966146," 3502.17",451,2,0,0
"34",44,"right","SHINEd_Kite_Rainbow.jpg","incongruent","m",970.869916,"f","f","left","(862, 362)",78,1,949.960091591069,300.575807074482," 1102.77",246,4,1,1
"34",45,"right","SHINEd_TissueBox.jpg","incongruent","m",669.872351,"f","f","left","(862, 362)",50,1,649.259169699406,-0.125114817182059," 2292.00",63,4,1,1
"34",46,"left","SHINEd_Escalator.jpg","congruent","m",641.047434,"f","f","left","(148, 362)",177,1,620.730895807742,-28.6533887088459,"  899.66",411,3,0,0
"34",47,"left","SHINEd_dragonfruit.jpg","incongruent","n",701.742728,"f","j","right","(148, 362)",437,0,681.722832916078,32.3385483994904," 2183.90",194,3,1,1
"34",48,"left","SHINEd_koala.jpg","incongruent","n",817.90481,"j","j","right","(148, 362)",365,1,798.181558024414,148.797273507827," 1458.04",393,3,0,0
"34",49,"left","SHINEd_Mitt_Oven.jpg","congruent","m",604.722597,"f","f","left","(148, 362)",137,1,585.29598813275,-64.0882963838373," 1148.02",103,4,1,1
"34",50,"right","SHINEd_Helmet_Bicycle.jpg","incongruent","m",936.681042,"f","f","left","(862, 362)",18,1,917.551076241087,268.166791724499," 1928.82",334,3,0,0
"34",51,"left","SHINEd_Vest.jpg","congruent","m",524.834657,"f","f","left","(148, 362)",5,1,506.001334349423,-143.382950167165," 1556.57",6,2,1,NA
"34",52,"left","SHINEd_Pacifier.jpg","congruent","m",431.723438,"f","f","left","(148, 362)",81,1,413.186758457759,-236.197526058829," 1532.69",304,4,1,1
"34",53,"left","SHINEd_Broccoli.jpg","incongruent","n",570.881923,"j","j","right","(148, 362)",253,1,552.641886566095,-96.7423979504924," 2082.16",213,3,1,1
"34",54,"left","SHINEd_Gum_Pack.jpg","congruent","m",542.344325,"f","f","left","(148, 362)",77,1,524.400931674431,-124.983352842156," 1234.19",376,4,1,1
"34",55,"left","SHINEd_pickle.jpg","incongruent","n",707.40166,"j","j","right","(148, 362)",373,1,689.754909782768,40.37062526618," 2855.89",40,3,1,1
"34",56,"left","SHINEd_Pineapple.jpg","incongruent","n",382.237538,"j","j","right","(148, 362)",353,1,364.887430891104,-284.496853625484," 1510.48",108,4,1,1
"34",57,"left","SHINEd_Pants_Firefighter.jpg","congruent","m",626.067809,"f","f","left","(148, 362)",1,1,609.01434499944,-40.3699395171476," 1370.38",445,4,1,1
"34",58,"right","SHINEd_Car_Vintage.jpg","incongruent","m",621.790894,"f","f","left","(862, 362)",186,1,605.034073107776,-44.3502114088114,"  789.46",358,3,1,1
"34",59,"right","SHINEd_Nuts_Walnut.jpg","congruent","n",632.10861,"j","j","right","(862, 362)",446,1,615.648432216112,-33.7358523004752," 1793.11",414,4,1,1
"34",60,"left","SHINEd_catfish.jpg","incongruent","n",675.119144,"j","j","right","(148, 362)",361,1,658.955609324449,9.57132480786101," 3819.40",116,4,1,1
"34",61,"right","SHINEd_Scooter.jpg","incongruent","m",600.352872,"f","f","left","(862, 362)",174,1,584.485980432785,-64.8983040838028," 1444.19",396,3,0,0
"34",62,"right","SHINEd_volcano copy.jpg","congruent","n",675.578248,"j","j","right","(862, 362)",234,1,660.007999541121,10.6237150245334,"  906.14",283,4,1,1
"34",63,"right","SHINEd_Bench_Black.jpg","incongruent","m",583.092882,"f","f","left","(862, 362)",206,1,567.819276649457,-81.5650078671304," 1285.91",241,3,1,1
"34",64,"right","SHINEd_Cranberry.jpg","congruent","n",642.144857,"j","j","right","(862, 362)",398,1,627.167894757793,-22.2163897587942," 1570.87",237,2,1,NA
"34",65,"left","SHINEd_Corn.jpg","incongruent","n",544.134652,"j","j","right","(148, 362)",337,1,529.45433286613,-119.929951650458," 1906.60",159,4,1,1
"34",66,"right","SHINEd_Tomato.jpg","congruent","n",564.154418,"j","j","right","(862, 362)",450,1,549.770741974466,-99.6135425421218," 8763.16",277,2,1,NA
"34",67,"left","SHINEd_Bird_Parrot.jpg","incongruent","n",768.521464,"j","j","right","(148, 362)",233,1,754.434431082802,105.050146566214," 4904.99",15,1,0,0
"34",68,"right","SHINEd_Heater_Outdoor.jpg","incongruent","m",613.386355,"f","f","left","(862, 362)",170,1,599.595965191138,-49.7883193254494," 2211.24",299,4,1,1
"34",69,"right","SHINEd_avocado.jpg","congruent","n",896.634971,"j","j","right","(862, 362)",394,1,883.141224299474,233.756939782887," 1073.16",375,3,1,1
"34",70,"left","SHINEd_Cloud.jpg","incongruent","n",845.17063,"j","j","right","(148, 362)",385,1,831.973526407811,182.589241891223," 1738.01",261,4,1,1
"34",71,"right","SHINEd_Feet.jpg","congruent","n",744.038013,"j","j","right","(862, 362)",310,1,731.137552516147,81.7532679995592," 1090.83",151,4,1,1
"34",72,"left","SHINEd_mizuna.jpg","incongruent","n",659.193092,"j","j","right","(148, 362)",429,1,646.589274624483,-2.79500989210459," 2614.25",406,3,1,1
"34",73,"left","SHINEd_Magnifying_Glass.jpg","congruent","m",534.776579,"f","f","left","(148, 362)",105,1,522.469404732819,-126.914879783768," 6080.18",366,3,1,1
"34",74,"right","SHINEd_Slide.jpg","incongruent","m",673.964946,"f","f","left","(862, 362)",82,1,661.954414841156,12.5701303245679," 1379.98",17,4,1,1
"34",75,"left","SHINEd_Saw.jpg","congruent","m",541.88059,"f","f","left","(148, 362)",33,1,530.166701949492,-119.217582567096,"  855.93",180,3,0,0
"34",76,"right","SHINEd_BearPolar.jpg","congruent","n",617.164011,"j","j","right","(862, 362)",386,1,605.746766057828,-43.6375184587598," 2374.96",86,2,1,NA
"34",77,"right","SHINEd_Door_Green.jpg","incongruent","m",NA,"miss","f","left","(862, 362)",106,0,NA,NA," 2367.88",54,3,0,0
"34",78,"right","SHINEd_ladybug.jpg","congruent","n",784.851759,"j","j","right","(862, 362)",238,1,774.0278002745,124.643515757913," 3750.30",319,4,1,1
"34",79,"right","SHINEd_LightHouse.jpg","incongruent","m",853.357641,"f","f","left","(862, 362)",146,1,842.830325382836,193.446040866249," 1692.57",260,3,0,0
"34",80,"right","SHINEd_Dog_CockerSpaniel.jpg","congruent","n",785.079301,"j","j","right","(862, 362)",306,1,774.848628491173,125.464343974585," 2642.16",351,3,0,0
"34",81,"right","SHINEd_ChalkboardEraser.jpg","incongruent","m",782.078298,"f","f","left","(862, 362)",62,1,772.144268599509,122.759984082921," 1454.60",82,4,1,1
"34",82,"right","SHINEd_hyena.jpg","congruent","n",681.591067,"j","j","right","(862, 362)",422,1,671.953680707845,22.5693961912574," 2047.47",253,4,1,1
"34",83,"right","SHINEd_LawnMower.jpg","incongruent","m",557.95408,"f","f","left","(862, 362)",46,1,548.613336816181,-100.770947700406," 1281.22",109,3,1,1
"34",84,"right","SHINEd_Flamingo_Real.jpg","congruent","n",554.165387,"j","j","right","(862, 362)",406,1,545.121286924517,-104.26299759207," 1012.16",292,4,1,1
"34",85,"left","SHINEd_Tree_Fir.jpg","incongruent","n",756.959354,"f","j","right","(148, 362)",229,0,748.211897032854,98.827612516266," 4353.91",83,4,1,1
"34",86,"left","SHINEd_Ruler_Wooden.jpg","congruent","m",NA,"miss","f","left","(148, 362)",73,0,NA,NA," 1665.64",10,1,0,0
"34",87,"left","SHINEd_Camera_Video.jpg","congruent","m",764.628487,"j","f","left","(148, 362)",97,0,756.474316249526,107.090031732938," 1079.46",96,2,0,0
"34",88,"left","SHINEd_WatermelonSlice.jpg","incongruent","n",625.685994,"j","j","right","(148, 362)",325,1,617.828466357862,-31.5558181587253," 1459.31",200,2,0,0
"34",89,"right","SHINEd_Grape.jpg","congruent","n",412.619655,"j","j","right","(862, 362)",274,1,405.058770466198,-244.325514050389,"  954.46",131,2,0,0
"34",90,"right","SHINEd_HairClip.jpg","incongruent","m",631.701239,"f","f","left","(862, 362)",194,1,624.436997574535,-24.9472869420529," 1456.57",162,2,0,0
"34",91,"left","SHINEd_Knee.jpg","incongruent","n",739.277051,"j","j","right","(148, 362)",309,1,732.309452682871,82.9251681662833," 2328.16",243,4,1,1
"34",92,"right","SHINEd_skeleton-lizard.jpg","congruent","n",695.368834,"j","j","right","(862, 362)",250,1,688.697878791207,39.3135942746195," 2407.58",212,3,0,0
"34",93,"left","SHINEd_starfruit.jpg","incongruent","n",809.452705,"j","j","right","(148, 362)",317,1,803.078392899543,153.694108382956," 4694.83",266,2,0,0
"34",94,"right","SHINEd_scallion.jpg","congruent","n",516.967542,"j","j","right","(862, 362)",314,1,510.889873007879,-138.494411508708," 1864.05",233,3,1,1
"34",95,"right","SHINEd_MobilityScooter.jpg","incongruent","m",NA,"miss","f","left","(862, 362)",182,0,NA,NA," 2328.84",248,2,1,NA
"34",96,"left","SHINEd_okapi.jpg","incongruent","n",525.19621,"j","j","right","(148, 362)",425,1,519.711827224552,-129.672457292036," 1492.71",16,1,0,0
"34",97,"right","SHINEd_RamAnimal.jpg","congruent","n",657.788546,"j","j","right","(862, 362)",454,1,652.600806332888,3.2165218163005," 2150.28",273,2,1,NA
"34",98,"left","SHINEd_rhino horn.jpg","incongruent","n",581.784293,"j","j","right","(148, 362)",249,1,576.893196441224,-72.4910880753633," 1045.72",285,4,1,1
"34",99,"left","SHINEd_Gloves_WhiteKnit.jpg","congruent","m",633.278857,"f","f","left","(148, 362)",197,1,628.684403549561,-20.6998809670271," 3212.87",267,3,1,1
"34",100,"right","SHINEd_discoball.jpg","incongruent","m",523.686696,"f","f","left","(862, 362)",226,1,519.388885657897,-129.995398858691,"  923.47",365,3,1,1
"34",101,"left","SHINEd_pumpkinseeds-.jpg","incongruent","n",487.387734,"j","j","right","(148, 362)",237,1,483.386566766233,-165.997717750355," 1476.07",357,3,1,1
"34",102,"right","SHINEd_Starfish.jpg","congruent","n",898.746184,"j","j","right","(862, 362)",378,1,895.041659874569,245.657375357981," 2766.45",155,2,1,NA
"34",103,"right","SHINEd_Bugle.jpg","incongruent","m",543.740053,"f","f","left","(862, 362)",14,1,540.332171982905,-109.052112533682," 2794.96",8,2,1,NA
"34",104,"right","SHINEd_Cat.jpg","congruent","n",497.932417,"j","j","right","(862, 362)",362,1,494.821179091242,-154.563105425346," 1664.53",264,2,0,0
"34",105,"right","SHINEd_peacockfeather.jpg","congruent","n",613.66044,"j","j","right","(862, 362)",382,1,610.845845199578,-38.5384393170099," 2103.99",171,1,0,0
"34",106,"left","SHINEd_Leg.jpg","incongruent","n",522.697924,"j","j","right","(148, 362)",405,1,520.179972307914,-129.204312208674,"  729.29",443,3,0,0
"34",107,"right","SHINEd_Radish.jpg","congruent","n",485.798834,"j","j","right","(862, 362)",242,1,483.57752541625,-165.806759100338," 2901.53",174,2,0,0
"34",108,"left","SHINEd_soil.jpg","incongruent","n",402.720851,"j","j","right","(148, 362)",289,1,400.796185524586,-248.588098992001," 4883.83",322,3,1,1
"34",109,"right","SHINEd_grasshopper.jpg","congruent","n",494.402457,"j","j","right","(862, 362)",286,1,492.774434632923,-156.609849883665," 2563.64",188,3,1,1
"34",110,"left","SHINEd_Collards.jpg","incongruent","n",378.099518,"j","j","right","(148, 362)",445,1,376.768138741259,-272.616145775329," 2080.45",161,3,1,1
"34",111,"left","SHINEd_Vase_Decorative copy.jpg","congruent","m",692.809118,"f","f","left","(148, 362)",221,1,691.774381849595,42.3900973330073," 1561.31",207,3,0,0
"34",112,"right","SHINEd_CasketOpen.jpg","incongruent","m",530.140286,"f","f","left","(862, 362)",218,1,529.402192957931,-119.982091558657," 1460.63",349,4,1,1
"34",113,"left","SHINEd_Wheel_Steering.jpg","congruent","m",660.432493,"f","f","left","(148, 362)",185,1,659.991043066267,10.6067585496798," 1657.16",218,3,1,1
"34",114,"left","SHINEd_Bottle_Blue.jpg","congruent","m",464.40754,"f","f","left","(148, 362)",217,1,464.262733174604,-185.121551341984," 1685.35",446,3,1,1
"34",115,"right","SHINEd_Hourglass.jpg","incongruent","m",486.792206,"f","f","left","(862, 362)",110,1,486.94404228294,-162.440242233648," 1816.52",257,3,1,1
"34",116,"right","SHINEd_Butterfly.jpg","congruent","n",386.280033,"f","j","right","(862, 362)",318,0,386.728512391276,-262.655772125312," 1284.55",325,3,1,1
"34",117,"right","SHINEd_RollerBlade.jpg","incongruent","m",621.153306,"j","f","left","(862, 362)",178,0,621.898428499612,-27.4858560169754," 1985.88",415,3,1,1
"34",118,"left","SHINEd_DogHouse.jpg","congruent","m",832.908224,"f","f","left","(148, 362)",165,1,833.949989607948,184.565705091361," 1240.47",133,4,1,1
"34",119,"right","SHINEd_Teapot.jpg","incongruent","m",715.471157,"f","f","left","(862, 362)",214,1,716.809565716285,67.4252811996969," 2809.87",5,2,0,0
"34",120,"right","SHINEd_Fruit_Orange.jpg","congruent","n",790.649871,"j","j","right","(862, 362)",302,1,792.284922824621,142.900638308033," 2481.68",71,3,1,1
"34",121,"right","SHINEd_ElectricOutlet.jpg","incongruent","m",587.849098,"f","f","left","(862, 362)",102,1,589.780792932957,-59.6034915836306," 1311.65",433,3,0,0
"34",122,"right","SHINEd_Bird_Pelican.jpg","congruent","n",734.316197,"j","j","right","(862, 362)",402,1,736.544535041293,87.1602505247056," 2821.02",168,3,0,0
"34",123,"left","SHINEd_Lychee.jpg","incongruent","n",691.089746,"j","j","right","(148, 362)",321,1,693.614727149629,44.2304426330418," 1261.21",152,4,1,1
"34",124,"left","SHINEd_Carrot.jpg","incongruent","n",582.569653,"j","j","right","(148, 362)",281,1,585.391277257966,-63.993007258622," 3786.83",204,3,1,1
"34",125,"right","SHINEd_Nuts_Pecan.jpg","congruent","n",617.676439,"j","j","right","(862, 362)",246,1,620.794706366302,-28.5895781502859," 1771.36",105,3,1,1
"34",126,"right","SHINEd_Ball_Basketball.jpg","incongruent","m",663.122553,"f","f","left","(862, 362)",130,1,666.537463474638,17.1531789580504," 1364.22",407,2,1,NA
"34",127,"left","SHINEd_DeepFryer.jpg","congruent","m",554.006438,"f","f","left","(148, 362)",161,1,557.717991582974,-91.6662929336134," 2070.89",122,2,1,NA
"34",128,"right","SHINEd_Fryingpan.jpg","incongruent","m",502.166154,"f","f","left","(862, 362)",158,1,506.17435069131,-143.209933825277,"  796.79",438,3,0,0
"34",129,"right","SHINEd_purple_yam.jpg","congruent","n",544.631795,"f","j","right","(862, 362)",442,0,548.936634799647,-100.447649716941," 3286.76",23,3,1,1
"34",130,"left","SHINEd_cheetah.jpg","incongruent","n",813.707769,"j","j","right","(148, 362)",245,1,818.309251907983,168.924967391395," 1408.27",362,2,0,0
"34",131,"left","SHINEd_Chair_High.jpg","congruent","m",683.280287,"f","f","left","(148, 362)",209,1,688.178413016319,38.7941284997314," 3970.28",346,3,1,1
"34",132,"right","SHINEd_SkullDeer.jpg","congruent","n",872.17384,"j","j","right","(862, 362)",278,1,877.368609124655,227.984324608068," 1619.97",189,2,1,NA
"34",133,"left","SHINEd_Gorilla.jpg","incongruent","n",691.444808,"f","j","right","(148, 362)",285,0,696.936220232991,47.5519357164038," 2388.28",308,2,0,0
"34",134,"right","SHINEd_antlers.jpg","congruent","n",NA,"miss","j","right","(862, 362)",418,0,NA,NA," 2697.35",138,2,1,NA
"34",135,"left","SHINEd_artichoke.jpg","incongruent","n",834.843127,"j","j","right","(148, 362)",453,1,840.927825449664,191.543540933076," 2206.92",53,3,1,1
"34",136,"left","SHINEd_whale.jpg","incongruent","n",492.597954,"j","j","right","(148, 362)",421,1,498.979295558,-150.404988958588," 1513.38",271,2,1,NA
"34",137,"right","SHINEd_Seashell_BayScallop.jpg","congruent","n",544.675352,"j","j","right","(862, 362)",270,1,551.353336666336,-98.0309478502514," 1687.95",330,2,1,NA
"34",138,"left","SHINEd_Clock_Radio.jpg","congruent","m",572.644976,"f","f","left","(148, 362)",93,1,579.619603774672,-69.7646807419151," 3439.56",104,3,0,0
"34",139,"right","SHINEd_USBKey.jpg","incongruent","m",599.677326,"j","f","left","(862, 362)",90,0,606.948596883009,-42.435687633579," 1420.62",156,2,0,0
"34",140,"left","SHINEd_Colander.jpg","congruent","m",763.967587,"f","f","left","(148, 362)",41,1,771.535500991345,122.151216474757," 5122.54",353,3,0,0
"34",141,"left","SHINEd_brusselsprouts.jpg","incongruent","n",693.861787,"j","j","right","(148, 362)",265,1,701.726344099681,52.3420595830935," 1703.94",197,3,1,1
"34",142,"left","SHINEd_fountain.jpg","congruent","m",795.066,"f","f","left","(148, 362)",169,1,803.227200208017,153.84291569143," 2427.02",185,3,0,0
"34",143,"right","SHINEd_Jacket_Suit.jpg","incongruent","m",NA,"miss","f","left","(862, 362)",2,0,NA,NA," 2186.96",14,2,0,0
"34",144,"left","SHINEd_Bowl_Wooden.jpg","congruent","m",NA,"miss","f","left","(148, 362)",141,0,NA,NA," 1027.52",50,3,0,0
"34",145,"left","SHINEd_Mango.jpg","incongruent","n",636.636687,"f","j","right","(148, 362)",277,0,645.687816533026,-3.69646798356172," 1550.15",12,3,1,1
"34",146,"left","SHINEd_catcus.jpg","incongruent","n",967.518449,"j","j","right","(148, 362)",313,1,976.866221641362,327.481937124774," 1217.67",224,3,1,1
"34",147,"left","SHINEd_Cabinet_Display.jpg","congruent","m",564.698201,"f","f","left","(148, 362)",205,1,574.342616749698,-75.0416677668893," 1729.79",327,2,0,0
"34",148,"right","SHINEd_Calculator.jpg","incongruent","m",631.677101,"f","f","left","(862, 362)",94,1,641.618159858034,-7.76612465855317," 1386.97",331,3,0,0
"34",149,"right","SHINEd_raccoon.jpg","congruent","n",610.565893,"j","j","right","(862, 362)",262,1,620.803594966371,-28.580689550217," 1097.77",134,2,0,0
"34",150,"left","SHINEd_Carabiner_Orange.jpg","congruent","m",NA,"miss","f","left","(148, 362)",29,0,NA,NA,"  702.30",418,3,0,0
"34",151,"left","SHINEd_Jetski.jpg","congruent","m",307.844089,"f","f","left","(148, 362)",181,1,318.675077183043,-330.709207333545," 1399.17",177,3,1,1
"34",152,"left","SHINEd_cottonplant.jpg","incongruent","n",601.169071,"j","j","right","(148, 362)",297,1,612.296702291379,-37.0875822252083," 2120.85",32,4,1,1
"34",153,"right","SHINEd_Boot_Rain.jpg","incongruent","m",837.231883,"f","f","left","(862, 362)",150,1,848.656157399716,199.271872883128," 4513.83",101,2,0,0
"34",154,"right","SHINEd_manatee.jpg","congruent","n",602.045761,"j","j","right","(862, 362)",342,1,613.766678508052,-35.617606008536," 1147.89",245,4,1,1
"34",155,"right","SHINEd_fox.jpg","congruent","n",645.108965,"j","j","right","(862, 362)",334,1,657.126525616388,7.74224109980027," 1254.28",234,3,1,1
"34",156,"left","SHINEd_Drum_Bongos.jpg","congruent","m",714.026954,"f","f","left","(148, 362)",9,1,726.341157724724,76.9568732081365," 1578.39",258,1,0,0
"34",157,"right","SHINEd_Cheesegrater_Handheld.jpg","incongruent","m",957.422985,"j","f","left","(862, 362)",162,0,970.03383183306,320.649547316473," 7162.15",87,2,1,NA
"34",158,"left","SHINEd_Snail.jpg","incongruent","n",648.799423,"j","j","right","(148, 362)",241,1,661.706912941397,12.3226284248089," 2682.70",28,4,1,1
"34",159,"right","SHINEd_Dog_Bulldog.jpg","congruent","n",435.942421,"j","j","right","(862, 362)",326,1,449.146554049733,-200.237730466855," 3946.01",281,4,1,1
"34",160,"right","SHINEd_rose.jpg","congruent","n",472.930451,"j","j","right","(862, 362)",430,1,486.431227158069,-162.953057358519," 1328.68",157,1,0,0
"34",161,"right","SHINEd_Flashlight.jpg","incongruent","m",604.822505,"f","f","left","(862, 362)",98,1,618.619924266405,-30.7643602501825," 3750.97",231,1,0,0
"34",162,"left","SHINEd_Cannon.jpg","congruent","m",616.528626,"f","f","left","(148, 362)",61,1,630.622688374741,-18.7615961418463,"  784.63",441,3,0,0
"34",163,"right","SHINEd_accordion.jpg","incongruent","m",463.668065,"j","f","left","(862, 362)",10,0,478.058770483078,-171.32551403351,"  916.17",343,2,0,0
"34",164,"right","SHINEd_lotusroot.jpg","congruent","n",611.229708,"j","j","right","(862, 362)",298,1,625.917056591414,-23.467227925174," 1004.25",77,4,1,1
"34",165,"left","SHINEd_horse.jpg","incongruent","n",559.016017,"j","j","right","(148, 362)",269,1,574.00000869975,-75.3842758168377," 9544.70",199,2,0,0
"34",166,"right","SHINEd_DustPan.jpg","incongruent","m",546.133527,"f","f","left","(862, 362)",54,1,561.414161808086,-87.9701227085016," 1170.42",363,3,1,1
"34",167,"right","SHINEd_Pumpkin.jpg","congruent","n",597.847267,"j","j","right","(862, 362)",294,1,613.424544916422,-35.9597396001653," 1447.63",211,1,0,0
"34",168,"right","SHINEd_Bicycle_Kids.jpg","incongruent","m",NA,"miss","f","left","(862, 362)",26,0,NA,NA," 5002.69",341,3,0,0
"34",169,"right","SHINEd_honeydew.jpg","congruent","n",771.32286,"j","j","right","(862, 362)",330,1,787.493424133095,138.109139616507," 3128.69",175,2,1,NA
"34",170,"left","SHINEd_MusicSheet.jpg","congruent","m",800.464031,"f","f","left","(148, 362)",13,1,816.931238241431,167.546953724843," 1111.06",225,2,0,0
"34",171,"right","SHINEd_spinach.jpg","congruent","n",659.334854,"j","j","right","(862, 362)",266,1,676.098704349767,26.7144198331794," 3220.08",4,2,0,0
"34",172,"left","SHINEd_Fish_Rockbass.jpg","incongruent","n",630.618794,"j","j","right","(148, 362)",341,1,647.679287458103,-1.70499705848432," 1456.13",125,2,0,0
"34",173,"right","SHINEd_durian.jpg","congruent","n",467.587236,"j","j","right","(862, 362)",374,1,484.94437256644,-164.439911950148," 2908.04",129,2,0,0
"34",174,"right","SHINEd_Beater_Electric.jpg","incongruent","m",646.001522,"f","f","left","(862, 362)",42,1,663.655301674776,14.2710171581881," 3844.14",422,2,1,NA
"34",175,"left","SHINEd_BusStop.jpg","congruent","m",656.386353,"f","f","left","(148, 362)",145,1,674.336775783112,24.9524912665243," 1257.77",291,4,1,1
"34",176,"right","SHINEd_Dragonfly.jpg","congruent","n",436.370752,"j","j","right","(862, 362)",346,1,454.617817891448,-194.76646662514," 1177.69",381,3,0,0
"34",177,"left","SHINEd_Oyster.jpg","incongruent","n",609.29512,"j","j","right","(148, 362)",433,1,627.838828999784,-21.5454555168033," 1599.93",143,4,1,1
"34",178,"left","SHINEd_Dice.jpg","congruent","m",668.650408,"f","f","left","(148, 362)",89,1,687.490760108121,38.1064755915329,"  853.17",449,4,1,1
"34",179,"right","SHINEd_Weights_Dumbells.jpg","incongruent","m",529.307354,"j","f","left","(862, 362)",22,0,548.444349216457,-100.939935300131," 4898.60",79,2,1,NA
"34",180,"left","SHINEd_HairDryer.jpg","congruent","m",759.042482,"j","f","left","(148, 362)",45,0,778.476120324793,129.091835808205," 2352.19",144,2,0,0
"34",181,"right","SHINEd_Gecko.jpg","congruent","n",642.552981,"j","j","right","(862, 362)",370,1,662.283262433129,12.8989779165416," 1096.59",163,2,1,NA
"34",182,"left","SHINEd_Turtle.jpg","incongruent","n",941.475965,"j","j","right","(148, 362)",305,1,961.502889541465,312.118605024878," 2323.87",57,4,1,1
"34",183,"right","SHINEd_skunk.jpg","congruent","n",529.344671,"j","j","right","(862, 362)",290,1,549.668238649802,-99.7160458667861," 1198.07",137,4,1,1
"34",184,"left","SHINEd_Leek.jpg","incongruent","n",387.793397,"j","j","right","(148, 362)",357,1,408.413607758138,-240.97067675845," 2178.59",41,4,1,1
"34",185,"right","SHINEd_Lips_Real.jpg","congruent","n",873.666648,"j","j","right","(862, 362)",390,1,894.583501866474,245.199217349886," 1174.24",339,4,1,1
"34",186,"right","SHINEd_Bathtub.jpg","incongruent","m",732.58341,"f","f","left","(862, 362)",58,1,753.79690697481,104.412622458222," 1353.32",66,3,0,0
"34",187,"left","SHINEd_ChainRusty.jpg","congruent","m",648.200391,"f","f","left","(148, 362)",21,1,669.710531083146,20.3262465665587," 1719.65",452,4,1,1
"34",188,"left","SHINEd_Lilypad.jpg","incongruent","n",844.050853,"j","j","right","(148, 362)",413,1,865.857636191482,216.473351674895," 1047.28",405,1,0,0
"34",189,"left","SHINEd_Bird_Eagle.jpg","incongruent","n",391.324535,"j","j","right","(148, 362)",257,1,413.427961299819,-235.956323216769,"  787.17",378,4,1,1
"34",190,"left","SHINEd_ShoppingCart.jpg","congruent","m",747.796216,"f","f","left","(148, 362)",109,1,770.196285408155,120.812000891567," 1749.08",399,3,1,1
"34",191,"left","SHINEd_Bleachers.jpg","congruent","m",776.219799,"f","f","left","(148, 362)",133,1,798.916511516491,149.532226999904," 2563.11",425,3,0,0
"34",192,"right","SHINEd_Mask_HockeyGoalie.jpg","incongruent","m",650.576612,"j","f","left","(862, 362)",126,0,673.569967624827,24.1856831082397,"  718.71",355,3,0,0
"34",193,"left","SHINEd_worm.jpg","incongruent","n",846.577563,"j","j","right","(148, 362)",389,1,869.867561733164,220.483277216576," 3008.16",145,4,1,1
"34",194,"left","SHINEd_Bottle_Beer.jpg","congruent","m",610.877069,"j","f","left","(148, 362)",213,0,634.4637108415,-14.9205736750878," 4067.09",296,1,1,NA
"34",195,"left","SHINEd_vanillabean copy.jpg","incongruent","n",621.021019,"j","j","right","(148, 362)",329,1,644.904303949836,-4.47998056675161," 1491.28",232,4,1,1
"34",196,"left","SHINEd_BasketballHoop.jpg","congruent","m",739.084771,"f","f","left","(148, 362)",129,1,763.264699058172,113.880414541585," 1310.43",427,3,1,1
"34",197,"left","SHINEd_BicycleChain.jpg","congruent","m",871.144357,"f","f","left","(148, 362)",17,1,895.620928166508,246.236643649921," 1211.84",274,3,1,1
"34",198,"left","SHINEd_Kettle.jpg","congruent","m",466.696032,"f","f","left","(148, 362)",157,1,491.469246274845,-157.915038241743,"  829.93",142,3,0,0
"34",199,"right","SHINEd_Slippers.jpg","incongruent","m",763.909994,"f","f","left","(862, 362)",154,1,788.979851383181,139.595566866593," 1286.34",60,4,1,1
"34",200,"left","SHINEd_Desk_School.jpg","congruent","m",752.503016,"f","f","left","(148, 362)",201,1,777.869516491517,128.485231974929," 2014.03",369,1,0,0
"34",201,"right","SHINEd_red_Cabbage.jpg","congruent","n",620.634787,"j","j","right","(862, 362)",230,1,646.297930599853,-3.08635391673446," 1720.09",121,4,1,1
"34",202,"right","SHINEd_Bucket_Rusty.jpg","incongruent","m",480.200816,"j","f","left","(862, 362)",34,0,506.160602708189,-143.223681808398,"  789.60",99,2,0,0
"34",203,"left","SHINEd_BowlingPin.jpg","congruent","m",571.127274,"f","f","left","(148, 362)",25,1,597.383703816526,-52.000580700062," 3156.39",92,2,1,NA
"34",204,"left","SHINEd_Makeup_Compact.jpg","congruent","m",704.689532,"f","f","left","(148, 362)",121,1,731.242604924862,81.8583204082742," 1302.62",454,4,1,1
"34",205,"left","SHINEd_frog.jpg","incongruent","n",717.175267,"j","j","right","(148, 362)",345,1,744.024983033198,94.6406985166103," 1161.39",367,4,1,1
"34",206,"right","SHINEd_Drill.jpg","incongruent","m",527.166199,"j","f","left","(862, 362)",30,0,554.312558141534,-95.0717263750534," 1544.92",455,2,0,0
"34",207,"right","SHINEd_rabbitt.jpg","congruent","n",531.798666,"j","j","right","(862, 362)",350,1,559.24166824987,-90.1426162667172," 1568.09",84,2,0,0
"34",208,"right","SHINEd_Swing_Child.jpg","incongruent","m",806.72598,"f","f","left","(862, 362)",166,1,834.465625358207,185.081340841619," 1444.20",120,2,0,0
"34",209,"left","SHINEd_mosquito.jpg","incongruent","n",897.719222,"j","j","right","(148, 362)",393,1,925.755510466543,276.371225949955," 2206.80",38,4,1,1
"34",210,"left","SHINEd_Gametable_AirHockey.jpg","congruent","m",581.988846,"f","f","left","(148, 362)",85,1,610.321777574879,-39.0625069417086," 1573.45",210,2,0,0
"34",211,"left","SHINEd_Bells_Christmas.jpg","congruent","m",NA,"miss","f","left","(148, 362)",225,0,NA,NA," 2429.36",149,4,1,1
"34",212,"right","SHINEd_ClothCoaster.jpg","incongruent","m",788.649339,"f","f","left","(862, 362)",142,1,817.575556791551,168.191272274964," 1557.74",408,3,0,0
"34",213,"right","SHINEd_PictureFrame.jpg","incongruent","m",496.280907,"f","f","left","(862, 362)",222,1,525.503767899888,-123.8805166167," 1950.94",214,3,1,1
"34",214,"right","SHINEd_Lynx.jpg","congruent","n",732.092011,"j","j","right","(862, 362)",438,1,761.611515008224,112.227230491636," 1519.02",305,3,1,1
"34",215,"right","SHINEd_Cane_Metal.jpg","incongruent","m",712.059174,"f","f","left","(862, 362)",190,1,741.87532111656,92.4910365999724," 1310.91",67,3,0,0
"34",216,"right","SHINEd_PencilSharpener.jpg","incongruent","m",442.399468,"f","f","left","(862, 362)",74,1,472.512258224896,-176.872026291691," 4060.84",302,1,0,0
"34",217,"left","SHINEd_Mattress.jpg","congruent","m",270.01994,"j","f","left","(148, 362)",49,0,300.429373333232,-348.954911183355,"  864.19",417,3,0,0
"34",218,"left","SHINEd_platypus.jpg","incongruent","n",NA,"miss","j","right","(148, 362)",293,0,NA,NA," 3466.05",186,1,0,0
"34",219,"left","SHINEd_Elephant.jpg","incongruent","n",NA,"miss","j","right","(148, 362)",349,0,NA,NA," 3512.25",27,4,1,1
"34",220,"right","SHINEd_brownbeans.jpg","congruent","n",NA,"miss","j","right","(862, 362)",366,0,NA,NA," 1303.33",229,3,0,0
"34",221,"left","SHINEd_DoorKnob.jpg","congruent","m",556.478995,"f","f","left","(148, 362)",53,1,588.075000766577,-61.3092837500103," 6066.95",390,3,0,0
"34",222,"left","SHINEd_Hat_Baseball.jpg","congruent","m",494.392224,"f","f","left","(148, 362)",189,1,526.284872874914,-123.099411641674," 3178.31",345,2,0,0
"34",223,"left","SHINEd_FileDivider.jpg","congruent","m",497.878895,"f","f","left","(148, 362)",69,1,530.06818698325,-119.316097533338," 3681.17",34,2,1,NA
"34",224,"left","SHINEd_goldenberry.jpg","incongruent","n",613.399585,"j","j","right","(148, 362)",397,1,645.885520091586,-3.49876442500176," 1485.68",22,4,1,1
"34",225,"right","SHINEd_Nail.jpg","incongruent","m",609.800094,"f","f","left","(862, 362)",38,1,642.582672199922,-6.80161231666561," 1111.22",235,3,1,1
"34",226,"left","SHINEd_Skates.jpg","congruent","m",783.939968,"f","f","left","(148, 362)",125,1,817.019189308258,167.634904791671," 2716.11",64,3,0,0
"34",227,"left","SHINEd_Paw.jpg","incongruent","n",555.091575,"j","j","right","(148, 362)",301,1,588.467439416595,-60.9168450999931," 2555.06",344,1,1,NA
"34",228,"left","SHINEd_Toad.jpg","incongruent","n",544.011721,"j","j","right","(148, 362)",441,1,577.684228524931,-71.700055991657," 4532.26",228,3,0,0
