"participant","trial_index","screenposition","stimulus","trialtype","classifyenc","rt","response","responsecorrect","responsecorrect_side","screenlocation","stimnum","acc","rtResidual","rtResidualC","rt_rec","trialno_rec","ratingConfidence","acc_rec","memoryHits.hc"
"35",1,"left","SHINEd_Helmet_Bicycle.jpg","incongruent","m",NA,"miss","j","right","(148, 362)",18,0,NA,NA," 1062.01",188,4,1,1
"35",2,"left","SHINEd_Tomato.jpg","congruent","n",913.322562,"f","f","left","(148, 362)",450,1,880.535907066598,179.424628899134,"  842.20",339,3,1,1
"35",3,"right","SHINEd_Bottle_Beer.jpg","congruent","m",NA,"miss","j","right","(862, 362)",213,0,NA,NA,"  920.74",52,4,1,1
"35",4,"left","SHINEd_Briefcase_Leather.jpg","incongruent","m",885.653402,"j","j","right","(148, 362)",210,1,853.440410597878,152.329132430414," 1491.08",18,2,1,NA
"35",5,"right","SHINEd_HotWaterBottle.jpg","congruent","m",NA,"miss","j","right","(862, 362)",113,0,NA,NA," 1318.37",123,4,1,1
"35",6,"left","SHINEd_Swing_Child.jpg","incongruent","m",733.586251,"j","j","right","(148, 362)",166,1,701.946923129153,0.83564496168926,"  890.89",278,3,1,1
"35",7,"right","SHINEd_Bells_Christmas.jpg","congruent","m",800.343849,"j","j","right","(862, 362)",225,1,768.991352894791,67.8800747273268," 1041.90",156,4,1,1
"35",8,"left","SHINEd_Flashlight.jpg","incongruent","m",796.975554,"j","j","right","(148, 362)",98,1,765.909889660428,64.7986114929643," 1193.41",222,3,1,1
"35",9,"left","SHINEd_Dragonfly.jpg","congruent","n",672.569648,"f","f","left","(148, 362)",346,1,641.790815426066,-59.3204627413981,"  989.48",372,4,1,1
"35",10,"right","SHINEd_Lychee.jpg","incongruent","n",924.210206,"f","f","left","(862, 362)",321,1,893.718205191703,192.606927024239,"  839.08",367,4,1,1
"35",11,"right","SHINEd_Dice.jpg","congruent","m",720.541357,"j","j","right","(862, 362)",89,1,690.336187957341,-10.7750902101232," 1075.74",118,3,1,1
"35",12,"right","SHINEd_WatermelonSlice.jpg","incongruent","n",612.602545,"f","f","left","(862, 362)",325,1,582.684207722978,-118.427070444486," 3422.12",256,4,1,1
"35",13,"right","SHINEd_Ruler_Wooden.jpg","congruent","m",841.96136,"j","j","right","(862, 362)",73,1,812.329854488616,111.218576321152," 1857.72",296,4,1,1
"35",14,"right","SHINEd_mizuna.jpg","incongruent","n",848.933889,"f","f","left","(862, 362)",429,1,819.589215254253,118.477937086789," 1052.77",74,4,1,1
"35",15,"right","SHINEd_DeepFryer.jpg","congruent","m",883.003575,"j","j","right","(862, 362)",161,1,853.945733019891,152.834454852427," 1368.76",116,4,1,1
"35",16,"left","SHINEd_DustPan.jpg","incongruent","m",823.479722,"j","j","right","(148, 362)",54,1,794.708711785528,93.5974336180644," 1095.73",122,3,1,1
"35",17,"right","SHINEd_Makeup_Compact.jpg","congruent","m",NA,"miss","j","right","(862, 362)",121,0,NA,NA," 1048.83",171,4,1,1
"35",18,"right","SHINEd_okapi.jpg","incongruent","n",742.017068,"f","f","left","(862, 362)",425,1,713.819721316803,12.7084431493393," 2267.15",25,3,0,0
"35",19,"left","SHINEd_TissueBox.jpg","incongruent","m",817.238865,"j","j","right","(148, 362)",50,1,789.328350082441,88.2170719149769," 2652.72",35,3,1,1
"35",20,"right","SHINEd_Colander.jpg","congruent","m",666.798526,"f","j","right","(862, 362)",41,0,639.174842848078,-61.9364353193856," 1475.92",336,2,1,NA
"35",21,"left","SHINEd_Door_Green.jpg","incongruent","m",NA,"miss","j","right","(148, 362)",106,0,NA,NA," 1308.50",126,3,1,1
"35",22,"right","SHINEd_Quartz.jpg","incongruent","n",850.520023,"j","f","left","(862, 362)",401,0,823.470003379353,122.358725211889," 1134.89",231,4,1,1
"35",23,"left","SHINEd_Goat.jpg","congruent","n",NA,"miss","f","left","(148, 362)",322,0,NA,NA," 2172.59",233,3,0,0
"35",24,"right","SHINEd_Leaf_Clover.jpg","incongruent","n",841.273557,"j","f","left","(862, 362)",449,0,814.797200910628,113.685922743164,"  848.79",326,4,1,1
"35",25,"right","SHINEd_DentalFloss.jpg","congruent","m",820.861003,"j","j","right","(862, 362)",117,1,794.671478676266,93.5602005088018," 2621.52",202,3,1,1
"35",26,"right","SHINEd_Leek.jpg","incongruent","n",810.444368,"f","f","left","(862, 362)",357,1,784.541675441904,83.4303972744394," 1142.64",215,1,0,0
"35",27,"left","SHINEd_Bird_Pelican.jpg","congruent","n",708.138202,"f","f","left","(148, 362)",402,1,682.522341207541,-18.5889369599232," 1546.62",448,2,0,0
"35",28,"left","SHINEd_Butterfly.jpg","congruent","n",634.410236,"f","f","left","(148, 362)",318,1,609.081206973178,-92.0300711942856," 1714.53",97,2,1,NA
"35",29,"left","SHINEd_Bench_Black.jpg","incongruent","m",652.940754,"j","j","right","(148, 362)",206,1,627.898556738816,-73.2127214286482," 1907.42",412,2,1,NA
"35",30,"left","SHINEd_raccoon.jpg","congruent","n",736.142478,"f","f","left","(148, 362)",262,1,711.387112504453,10.2758343369893," 2185.71",91,4,1,1
"35",31,"right","SHINEd_brusselsprouts.jpg","incongruent","n",660.112393,"f","f","left","(862, 362)",265,1,635.643859270091,-65.4674188973732," 1782.50",405,3,1,1
"35",32,"right","SHINEd_pickle.jpg","incongruent","n",807.957286,"f","f","left","(862, 362)",373,1,783.775584035728,82.6643058682643," 3942.13",298,3,1,1
"35",33,"left","SHINEd_Lynx.jpg","congruent","n",971.959737,"f","f","left","(148, 362)",438,1,948.064866801366,246.953588633902," 1307.98",119,3,1,1
"35",34,"left","SHINEd_Drill.jpg","incongruent","m",704.426849,"j","j","right","(148, 362)",30,1,680.818810567003,-20.2924676004607," 1053.32",77,2,1,NA
"35",35,"right","SHINEd_Magnifying_Glass.jpg","congruent","m",835.808359,"j","j","right","(862, 362)",105,1,812.487152332641,111.375874165177," 3210.33",54,2,1,NA
"35",36,"left","SHINEd_couch.jpg","incongruent","m",605.735998,"j","j","right","(148, 362)",202,1,582.701623098278,-118.409655069186," 1872.65",403,3,1,1
"35",37,"left","SHINEd_eucalyptus.jpg","congruent","n",657.45504,"f","f","left","(148, 362)",282,1,634.707496863916,-66.4037813035481," 1740.86",161,2,1,NA
"35",38,"right","SHINEd_catcus.jpg","incongruent","n",812.944708,"f","f","left","(862, 362)",313,1,790.483996629553,89.3727184620893," 5921.84",191,3,1,1
"35",39,"left","SHINEd_treestump.jpg","congruent","n",816.084381,"j","f","left","(148, 362)",414,0,793.910501395191,92.7992232277268," 1195.44",138,2,0,0
"35",40,"left","SHINEd_discoball.jpg","incongruent","m",676.221669,"j","j","right","(148, 362)",226,1,654.334621160828,-46.7766570066356," 1002.14",357,2,1,NA
"35",41,"left","SHINEd_antlers.jpg","congruent","n",709.966251,"f","f","left","(148, 362)",418,1,688.366034926466,-12.7452432409981,"  858.11",417,4,1,1
"35",42,"right","SHINEd_Gorilla.jpg","incongruent","n",617.549707,"f","f","left","(862, 362)",285,1,596.236322692103,-104.874955475361,"  883.49",352,4,1,1
"35",43,"right","SHINEd_RecordPlayer.jpg","congruent","m",622.592765,"j","j","right","(862, 362)",149,1,601.566212457741,-99.5450657097232,"  975.90",184,4,1,1
"35",44,"right","SHINEd_Carrot.jpg","incongruent","n",586.007264,"f","f","left","(862, 362)",281,1,565.267543223378,-135.843734944086,"  888.86",332,4,1,1
"35",45,"right","SHINEd_Oyster.jpg","incongruent","n",861.411281,"f","f","left","(862, 362)",433,1,840.958391989016,139.847113821552," 2772.32",23,3,1,1
"35",46,"right","SHINEd_Boat_Colourful.jpg","congruent","m",648.786233,"j","j","right","(862, 362)",173,1,628.620175754653,-72.4911024128106," 1017.01",134,4,1,1
"35",47,"right","SHINEd_Dog_ChowChow.jpg","incongruent","n",756.922551,"f","f","left","(862, 362)",369,1,737.043325520291,35.9320473528268," 1215.76",206,4,1,1
"35",48,"right","SHINEd_artichoke.jpg","incongruent","n",735.09574,"f","f","left","(862, 362)",453,1,715.503346285928,14.3920681184643," 1712.30",56,2,1,NA
"35",49,"right","SHINEd_FlipFlop_PairBlue.jpg","congruent","m",715.867478,"j","j","right","(862, 362)",153,1,696.561916051566,-4.54936211589816," 1322.59",430,3,1,1
"35",50,"left","SHINEd_Lipstick.jpg","incongruent","m",910.327345,"j","j","right","(148, 362)",198,1,891.308614817203,190.197336649739," 3862.07",436,4,1,1
"35",51,"left","SHINEd_Cat.jpg","congruent","n",562.025157,"f","f","left","(148, 362)",362,1,543.293258582841,-157.818019584623," 1233.72",70,2,0,0
"35",52,"right","SHINEd_Mattress.jpg","congruent","m",559.131441,"j","j","right","(862, 362)",49,1,540.686374348478,-160.424903818986," 4670.76",110,2,1,NA
"35",53,"right","SHINEd_Bird_Parrot.jpg","incongruent","n",577.35584,"f","f","left","(862, 362)",233,1,559.197605114116,-141.913673053348," 1971.36",300,4,1,1
"35",54,"right","SHINEd_fountain.jpg","congruent","m",724.422731,"j","j","right","(862, 362)",169,1,706.551327879753,5.44004971228934," 1981.16",350,3,1,1
"35",55,"left","SHINEd_Nail.jpg","incongruent","m",656.400557,"j","j","right","(148, 362)",38,1,638.815985645391,-62.2952925220731,"  642.99",451,3,1,1
"35",56,"right","SHINEd_dragonfruit.jpg","incongruent","n",642.080134,"f","f","left","(862, 362)",437,1,624.782394411028,-76.3288837564356," 2048.80",131,4,1,1
"35",57,"left","SHINEd_Radish.jpg","congruent","n",639.398275,"f","f","left","(148, 362)",242,1,622.387367176666,-78.7239109907982," 2789.93",329,3,1,1
"35",58,"left","SHINEd_Slippers.jpg","incongruent","m",650.535552,"j","j","right","(148, 362)",154,1,633.811475942303,-67.2998022251606," 1034.57",364,3,1,1
"35",59,"right","SHINEd_Skates.jpg","congruent","m",838.21158,"j","j","right","(862, 362)",125,1,821.774335707941,120.663057540477,"  812.38",150,4,1,1
"35",60,"left","SHINEd_Teapot.jpg","incongruent","m",NA,"miss","j","right","(148, 362)",214,0,NA,NA,"  861.97",398,3,0,0
"35",61,"right","SHINEd_Turtle.jpg","incongruent","n",701.169548,"f","f","left","(862, 362)",305,1,685.305967239216,-15.8053109282482," 5984.63",381,3,1,1
"35",62,"right","SHINEd_Camera_Video.jpg","congruent","m",682.0722,"j","j","right","(862, 362)",97,1,666.495451004853,-34.6158271626107," 1316.98",286,2,1,NA
"35",63,"right","SHINEd_white_strawberries.jpg","incongruent","n",612.292264,"f","f","left","(862, 362)",417,1,597.002346770491,-104.108931396973," 3424.92",58,4,1,1
"35",64,"left","SHINEd_RamAnimal.jpg","congruent","n",NA,"miss","f","left","(148, 362)",454,0,NA,NA," 1133.81",66,2,0,0
"35",65,"right","SHINEd_orchid.jpg","incongruent","n",NA,"miss","f","left","(862, 362)",261,0,NA,NA," 2776.33",10,2,1,NA
"35",66,"left","SHINEd_brownbeans.jpg","congruent","n",753.304707,"f","f","left","(148, 362)",366,1,738.875285067403,37.7640068999393," 1009.72",95,4,1,1
"35",67,"right","SHINEd_starfruit.jpg","incongruent","n",597.035237,"f","f","left","(862, 362)",317,1,582.892646833041,-118.218631334423," 4756.20",2,3,1,1
"35",68,"left","SHINEd_Box_Notepaper.jpg","incongruent","m",696.203516,"j","j","right","(148, 362)",70,1,682.347757598679,-18.7635205687856," 1078.25",261,4,1,1
"35",69,"left","SHINEd_skeleton-lizard.jpg","congruent","n",596.085777,"f","f","left","(148, 362)",250,1,582.516850364316,-118.594427803148,"  924.29",371,4,1,1
"35",70,"left","SHINEd_Clarinet.jpg","incongruent","m",657.001138,"j","j","right","(148, 362)",6,1,643.719043129953,-57.3922350375107," 1024.26",88,4,1,1
"35",71,"right","SHINEd_Wheel_Steering.jpg","congruent","m",668.257445,"j","j","right","(862, 362)",185,1,655.262181895591,-45.8490962718732," 1816.35",281,3,0,0
"35",72,"left","SHINEd_Clip_Paper.jpg","incongruent","m",920.217475,"j","j","right","(148, 362)",66,1,907.509043661228,206.397765493764," 1055.63",159,4,1,1
"35",73,"right","SHINEd_Gametable_AirHockey.jpg","congruent","m",700.442983,"j","j","right","(862, 362)",85,1,688.021383426866,-13.0898947405981," 1557.39",392,4,1,1
"35",74,"left","SHINEd_ElectricOutlet.jpg","incongruent","m",711.580373,"j","j","right","(148, 362)",102,1,699.445605192503,-1.66567297496065," 1428.07",43,3,1,1
"35",75,"right","SHINEd_Vase_Decorative copy.jpg","congruent","m",755.378395,"j","j","right","(862, 362)",221,1,743.530458958141,42.4191807906768,"  889.69",308,3,1,1
"35",76,"left","SHINEd_Feet.jpg","congruent","n",686.9548,"f","f","left","(148, 362)",310,1,675.393695723778,-25.7175824436857," 1448.60",153,3,1,1
"35",77,"left","SHINEd_MobilityScooter.jpg","incongruent","m",625.64797,"j","j","right","(148, 362)",182,1,614.373697489416,-86.7375806780482," 1085.86",318,3,1,1
"35",78,"right","SHINEd_Escalator.jpg","congruent","m",607.680796,"j","j","right","(862, 362)",177,1,596.693355255053,-104.417922912411," 6943.09",146,2,0,0
"35",79,"right","SHINEd_dinosaur fossil.jpg","incongruent","n",602.443293,"f","f","left","(862, 362)",377,1,591.742684020691,-109.368594146773,"  988.54",290,4,1,1
"35",80,"right","SHINEd_HairDryer.jpg","congruent","m",510.484864,"j","j","right","(862, 362)",45,1,500.071086786328,-201.040191381136," 1088.78",76,2,1,NA
"35",81,"right","SHINEd_koala.jpg","incongruent","n",537.984569,"f","f","left","(862, 362)",365,1,527.857623551966,-173.253654615498," 3682.62",36,3,1,1
"35",82,"right","SHINEd_Pacifier.jpg","congruent","m",587.707154,"j","j","right","(862, 362)",81,1,577.867040317603,-123.244237849861," 1415.35",173,4,1,1
"35",83,"right","SHINEd_catfish.jpg","incongruent","n",543.491298,"f","f","left","(862, 362)",361,1,533.938016083241,-167.173262084223," 1496.87",319,3,1,1
"35",84,"left","SHINEd_purple_yam.jpg","congruent","n",811.844414,"f","f","left","(148, 362)",442,1,802.577963848878,101.466685681414," 1340.34",44,3,1,1
"35",85,"right","SHINEd_frog.jpg","incongruent","n",713.114851,"f","f","left","(862, 362)",345,1,704.135232614516,3.02395444705189," 2825.01",251,3,1,1
"35",86,"left","SHINEd_avocado.jpg","congruent","n",659.29483,"f","f","left","(148, 362)",394,1,650.602043380154,-50.5092347873106,"  990.76",375,3,1,1
"35",87,"left","SHINEd_pomegrant.jpg","congruent","n",511.24981,"f","f","left","(148, 362)",354,1,502.843855145791,-198.267423021673," 1216.27",266,3,1,1
"35",88,"left","SHINEd_Mask_HockeyGoalie.jpg","incongruent","m",524.586477,"j","j","right","(148, 362)",126,1,516.467353911428,-184.643924256036," 1324.92",284,3,1,1
"35",89,"right","SHINEd_Drum_Bongos.jpg","congruent","m",727.874128,"j","j","right","(862, 362)",9,1,720.041836677066,18.9305585096019," 1953.70",210,3,1,1
"35",90,"right","SHINEd_soil.jpg","incongruent","n",NA,"miss","f","left","(862, 362)",289,0,NA,NA," 1216.75",274,4,1,1
"35",91,"right","SHINEd_goldenberry.jpg","incongruent","n",854.264785,"f","f","left","(862, 362)",397,1,847.006157208341,145.894879040877," 4463.65",289,2,1,NA
"35",92,"left","SHINEd_greenapple.jpg","congruent","n",737.326385,"f","f","left","(148, 362)",410,1,730.354588973978,29.2433108065143," 1191.15",204,3,1,1
"35",93,"right","SHINEd_horse.jpg","incongruent","n",667.657761,"f","f","left","(862, 362)",269,1,660.972796739616,-40.1384814278481," 1914.79",248,2,1,NA
"35",94,"left","SHINEd_hyena.jpg","congruent","n",592.492097,"f","f","left","(148, 362)",422,1,586.093964505253,-115.017313662211," 2063.90",30,1,0,0
"35",95,"right","SHINEd_platypus.jpg","incongruent","n",723.527968,"f","f","left","(862, 362)",293,1,717.416667270891,16.3053891034268," 1080.02",65,4,1,1
"35",96,"right","SHINEd_Paw.jpg","incongruent","n",614.334705,"f","f","left","(862, 362)",301,1,608.510236036528,-92.6010421309357," 2295.17",67,4,1,1
"35",97,"left","SHINEd_lotusroot.jpg","congruent","n",712.870172,"j","f","left","(148, 362)",298,0,707.332534802166,6.22125663470188," 1050.16",230,3,0,0
"35",98,"left","SHINEd_Weights_Dumbells.jpg","incongruent","m",701.688103,"j","j","right","(148, 362)",22,1,696.437297567803,-4.67398059966069,"  993.90",232,4,1,1
"35",99,"left","SHINEd_Pumpkin.jpg","congruent","n",848.744638,"f","f","left","(148, 362)",294,1,843.780664333441,142.669386165977," 2577.74",9,4,1,1
"35",100,"left","SHINEd_Boot_Rain.jpg","incongruent","m",604.212327,"j","j","right","(148, 362)",150,1,599.535185099078,-101.576093068386," 1349.39",194,2,0,0
"35",101,"left","SHINEd_Fryingpan.jpg","incongruent","m",712.258792,"j","j","right","(148, 362)",158,1,707.868481864716,6.75720369725183," 3194.36",411,3,0,0
"35",102,"left","SHINEd_grasshopper.jpg","congruent","n",666.24738,"f","f","left","(148, 362)",286,1,662.143901630353,-38.9673765371106," 2231.27",103,2,0,0
"35",103,"right","SHINEd_whale.jpg","incongruent","n",782.042456,"f","f","left","(862, 362)",421,1,778.225809395991,77.1145312285269," 3853.81",197,3,1,1
"35",104,"left","SHINEd_Fruit_Orange.jpg","congruent","n",785.939848,"f","f","left","(148, 362)",302,1,782.410033161628,81.2987549941644," 1473.29",237,3,1,1
"35",105,"left","SHINEd_Cantaloupe.jpg","congruent","n",535.592857,"f","f","left","(148, 362)",338,1,532.349873927266,-168.761404240198," 1512.49",380,3,1,1
"35",106,"right","SHINEd_Tree_Fir.jpg","incongruent","n",707.515497,"f","f","left","(862, 362)",229,1,704.559345692903,3.44806752543934," 3371.72",424,4,1,1
"35",107,"left","SHINEd_Nuts_Pecan.jpg","congruent","n",845.216858,"f","f","left","(148, 362)",246,1,842.547538458541,141.436260291077," 1006.15",418,3,1,1
"35",108,"right","SHINEd_Giraffe.jpg","incongruent","n",649.32514,"f","f","left","(862, 362)",381,1,646.942652224178,-54.1686259432856,"  817.64",312,4,1,1
"35",109,"left","SHINEd_SkullDeer.jpg","congruent","n",541.534089,"f","f","left","(148, 362)",278,1,539.438432989816,-161.672845177648," 2150.16",456,3,1,1
"35",110,"right","SHINEd_mosquito.jpg","incongruent","n",592.46485,"f","f","left","(862, 362)",393,1,590.656025755453,-110.455252412011," 3123.75",192,2,0,0
"35",111,"right","SHINEd_Pants_Firefighter.jpg","congruent","m",637.139944,"j","j","right","(862, 362)",1,1,635.617951521091,-65.4933266463731," 1218.21",104,4,1,1
"35",112,"left","SHINEd_Heater_Outdoor.jpg","incongruent","m",680.936686,"j","j","right","(148, 362)",170,1,679.701525286728,-21.4097528807356," 2450.80",264,2,1,NA
"35",113,"right","SHINEd_Carabiner_Orange.jpg","congruent","m",547.197073,"j","j","right","(862, 362)",29,1,546.248744052366,-154.862534115098," 4223.07",438,3,1,1
"35",114,"left","SHINEd_mushroom_other.jpg","congruent","n",567.015866,"f","f","left","(148, 362)",426,1,566.354368818003,-134.756909349461," 1429.12",32,2,1,NA
"35",115,"right","SHINEd_Elephant.jpg","incongruent","n",586.397406,"f","f","left","(862, 362)",349,1,586.022740583641,-115.088537583823," 1170.82",198,3,1,1
"35",116,"right","SHINEd_Hat_Baseball.jpg","congruent","m",815.434724,"j","j","right","(862, 362)",189,1,815.346890349278,114.235612181814,"  879.41",383,3,0,0
"35",117,"left","SHINEd_CasketOpen.jpg","incongruent","m",NA,"miss","j","right","(148, 362)",218,0,NA,NA,"  982.53",99,4,1,1
"35",118,"right","SHINEd_Vest.jpg","congruent","m",NA,"miss","j","right","(862, 362)",5,0,NA,NA," 1311.26",16,3,1,1
"35",119,"left","SHINEd_airpump.jpg","incongruent","m",NA,"miss","j","right","(148, 362)",114,0,NA,NA," 1219.36",50,4,1,1
"35",120,"left","SHINEd_Grape.jpg","congruent","n",916.361102,"f","f","left","(148, 362)",274,1,917.420595411828,216.309317244364,"  856.36",442,3,1,1
"35",121,"left","SHINEd_PictureFrame.jpg","incongruent","m",713.794138,"j","j","right","(148, 362)",222,1,715.140463177466,14.0291850100018," 1954.30",265,2,0,0
"35",122,"right","SHINEd_Gloves_WhiteKnit.jpg","congruent","m",892.048843,"j","j","right","(862, 362)",197,1,893.681999943104,192.570721775639," 1783.71",111,2,0,0
"35",123,"right","SHINEd_Bird_Eagle.jpg","incongruent","n",734.379775,"f","f","left","(862, 362)",257,1,736.299763708741,35.1884855412769," 1083.36",130,3,1,1
"35",124,"right","SHINEd_cheetah.jpg","incongruent","n",930.805132,"f","f","left","(862, 362)",245,1,933.011952474378,231.900674306914," 1686.71",277,2,0,0
"35",125,"right","SHINEd_Bottle_Blue.jpg","congruent","m",655.486949,"j","j","right","(862, 362)",217,1,657.980601240016,-43.1306769274481,"  812.74",433,3,1,1
"35",126,"left","SHINEd_ClothCoaster.jpg","incongruent","m",705.940104,"j","j","right","(148, 362)",142,1,708.720588005653,7.60930983818939,"  897.40",313,4,1,1
"35",127,"left","SHINEd_scallion.jpg","congruent","n",558.607928,"f","f","left","(148, 362)",314,1,561.675243771291,-139.436034396173," 2799.32",68,2,1,NA
"35",128,"left","SHINEd_Slide.jpg","incongruent","m",632.911418,"j","j","right","(148, 362)",82,1,636.265565536929,-64.8457126305356," 3328.67",144,2,1,NA
"35",129,"left","SHINEd_skunk.jpg","congruent","n",637.574921,"f","f","left","(148, 362)",290,1,641.215900302566,-59.8953778648981," 1009.25",377,3,0,0
"35",130,"left","SHINEd_HairClip.jpg","incongruent","m",737.017839,"j","j","right","(148, 362)",194,1,740.945650068203,39.8343719007393," 1322.58",37,3,1,1
"35",131,"left","SHINEd_Bowl_Fruits.jpg","congruent","n",676.416559,"f","f","left","(148, 362)",434,1,680.631201833841,-20.4800763336231," 1360.65",253,4,1,1
"35",132,"left","SHINEd_rabbitt.jpg","congruent","n",681.765084,"f","f","left","(148, 362)",350,1,686.266558599478,-14.8447195679856," 1175.97",41,4,1,1
"35",133,"right","SHINEd_Lilypad.jpg","incongruent","n",668.276135,"f","f","left","(862, 362)",413,1,673.064441365116,-28.0468368023482," 2983.18",379,3,1,1
"35",134,"right","SHINEd_Switch_LightWhite.jpg","congruent","m",609.383502,"j","j","right","(862, 362)",57,1,614.458640130753,-86.6526380367106,"  860.65",260,3,1,1
"35",135,"right","SHINEd_Toad.jpg","incongruent","n",626.366139,"f","f","left","(862, 362)",441,1,631.728108896391,-69.3831692710731," 1488.17",354,3,1,1
"35",136,"right","SHINEd_red_panda.jpg","incongruent","n",615.505215,"f","f","left","(862, 362)",273,1,621.154016662028,-79.9572615054356," 1898.45",269,2,1,NA
"35",137,"right","SHINEd_Desk_School.jpg","congruent","m",505.840944,"j","j","right","(862, 362)",201,1,511.776577427666,-189.334700739798,"  978.84",345,3,1,1
"35",138,"right","SHINEd_Bleachers.jpg","congruent","m",836.997768,"j","j","right","(862, 362)",133,1,843.220233193303,142.108955025839," 1137.25",428,2,0,0
"35",139,"left","SHINEd_Bucket_Rusty.jpg","incongruent","m",935.940185,"j","j","right","(148, 362)",34,1,942.449481958941,241.338203791477," 5290.81",271,3,0,0
"35",140,"right","SHINEd_Saw.jpg","congruent","m",715.24013,"j","j","right","(862, 362)",33,1,722.036258724578,20.9249805571144,"  976.21",349,4,1,1
"35",141,"left","SHINEd_Boardgame_Chess.jpg","incongruent","m",710.580014,"j","j","right","(148, 362)",86,1,717.662974490216,16.5516963227519," 1184.61",226,4,1,1
"35",142,"left","SHINEd_Seashell_BayScallop.jpg","congruent","n",532.49941,"f","f","left","(148, 362)",270,1,539.869202255853,-161.242075911611," 8639.80",244,2,1,NA
"35",143,"right","SHINEd_worm.jpg","incongruent","n",935.924372,"f","f","left","(862, 362)",389,1,943.580996021491,242.469717854027," 4640.13",445,3,0,0
"35",144,"left","SHINEd_red_Cabbage.jpg","congruent","n",NA,"miss","f","left","(148, 362)",230,0,NA,NA,"  134.46",437,4,0,0
"35",145,"left","SHINEd_Ball_Basketball.jpg","incongruent","m",783.340118,"j","j","right","(148, 362)",130,1,791.570405552766,90.4591273853018,"  808.90",450,3,1,1
"35",146,"left","SHINEd_Bicycle_Kids.jpg","incongruent","m",545.997816,"j","j","right","(148, 362)",26,1,554.514935318403,-146.596342849061,"  853.23",369,3,1,1
"35",147,"right","SHINEd_BowlingPin.jpg","congruent","m",765.777142,"j","j","right","(862, 362)",25,1,774.581093084041,73.4698149165769,"  915.62",85,4,1,1
"35",148,"left","SHINEd_ChalkboardEraser.jpg","incongruent","m",923.685162,"j","j","right","(148, 362)",62,1,932.775944849678,231.664666682214,"  905.34",330,3,1,1
"35",149,"left","SHINEd_rose.jpg","congruent","n",758.284532,"f","f","left","(148, 362)",430,1,767.662146615316,66.5508684478519," 1349.32",40,3,1,1
"35",150,"right","SHINEd_ChainRusty.jpg","congruent","m",858.346689,"j","j","right","(862, 362)",21,1,868.011135380953,166.899857213489," 1042.02",221,4,1,1
"35",151,"right","SHINEd_BasketballHoop.jpg","congruent","m",759.502541,"j","j","right","(862, 362)",129,1,769.453819146591,68.3425409791268," 1035.66",421,3,0,0
"35",152,"left","SHINEd_Kite_Rainbow.jpg","incongruent","m",880.376088,"j","j","right","(148, 362)",78,1,890.614197912229,189.502919744764," 1082.29",416,4,1,1
"35",153,"left","SHINEd_Deodorant.jpg","incongruent","m",659.72471,"j","j","right","(148, 362)",118,1,670.249651677866,-30.8616264895982,"  914.47",325,4,1,1
"35",154,"right","SHINEd_Knife_Camping.jpg","congruent","m",776.27306,"j","j","right","(862, 362)",37,1,787.084833443503,85.9735552760394," 1035.08",331,4,1,1
"35",155,"right","SHINEd_Binder.jpg","congruent","m",730.294375,"j","j","right","(862, 362)",65,1,741.392980209141,40.2817020416768," 1293.99",351,4,1,1
"35",156,"left","SHINEd_wheat_stock.jpg","congruent","n",511.115681,"f","f","left","(148, 362)",358,1,522.501117974778,-178.610160192686," 2506.89",263,2,1,NA
"35",157,"right","SHINEd_donkey.jpg","incongruent","n",609.483271,"f","f","left","(862, 362)",409,1,621.155539740416,-79.9557384270482," 1316.95",57,3,1,1
"35",158,"right","SHINEd_vanillabean copy.jpg","incongruent","n",885.183991,"f","f","left","(862, 362)",329,1,897.143091506053,196.031813338589," 4503.31",413,3,1,1
"35",159,"right","SHINEd_DoorKnob.jpg","congruent","m",648.815071,"j","j","right","(862, 362)",53,1,661.061003271691,-40.0502748957731," 7760.27",211,3,1,1
"35",160,"right","SHINEd_Megaphone.jpg","congruent","m",653.20905,"j","j","right","(862, 362)",101,1,665.741814037328,-35.3694641301356," 1714.97",376,3,1,1
"35",161,"left","SHINEd_Cheesegrater_Handheld.jpg","incongruent","m",NA,"miss","j","right","(148, 362)",162,0,NA,NA," 3495.24",34,1,1,NA
"35",162,"left","SHINEd_durian.jpg","congruent","n",604.233353,"f","f","left","(148, 362)",374,1,617.339780568603,-83.7714975988606," 1569.88",220,2,0,0
"35",163,"right","SHINEd_Knee.jpg","incongruent","n",943.714202,"f","f","left","(862, 362)",309,1,957.107461334241,255.996183166777," 1023.18",185,4,1,1
"35",164,"left","SHINEd_Lips_Real.jpg","congruent","n",763.216937,"f","f","left","(148, 362)",390,1,776.897028099879,75.7857499324144," 1318.60",181,4,1,1
"35",165,"left","SHINEd_accordion.jpg","incongruent","m",775.914257,"j","j","right","(148, 362)",10,1,789.881179865516,88.7699016980519," 1377.04",262,2,1,NA
"35",166,"right","SHINEd_Corn.jpg","incongruent","n",708.411589,"f","f","left","(862, 362)",337,1,722.665343631154,21.5540654636894,"  912.65",344,3,1,1
"35",167,"right","SHINEd_Kettle.jpg","congruent","m",574.896703,"j","j","right","(862, 362)",157,1,589.437289396791,-111.673988770673,"  974.45",51,4,1,1
"35",168,"left","SHINEd_Calculator.jpg","incongruent","m",851.712924,"j","j","right","(148, 362)",94,1,866.540342162428,165.429063994964," 1094.52",59,4,1,1
"35",169,"right","SHINEd_BicycleChain.jpg","congruent","m",775.308144,"j","j","right","(862, 362)",17,1,790.422393928066,89.3111157606019," 1070.73",299,4,1,1
"35",170,"left","SHINEd_manatee.jpg","congruent","n",572.56043,"f","f","left","(148, 362)",342,1,587.961511693703,-113.149766473761," 2408.17",81,2,1,NA
"35",171,"left","SHINEd_Flamingo_Real.jpg","congruent","n",503.728878,"f","f","left","(148, 362)",406,1,519.416791459341,-181.694486708123," 1434.54",393,3,1,1
"35",172,"left","SHINEd_LawnMower.jpg","incongruent","m",529.807356,"f","j","right","(148, 362)",46,0,545.782101224979,-155.329176942486," 1231.76",422,3,1,1
"35",173,"left","SHINEd_Cherry.jpg","congruent","n",NA,"miss","f","left","(148, 362)",258,0,NA,NA," 1016.72",346,4,1,1
"35",174,"right","SHINEd_Cloud.jpg","incongruent","n",NA,"miss","f","left","(862, 362)",385,0,NA,NA," 1038.56",112,4,1,1
"35",175,"right","SHINEd_DogHouse.jpg","congruent","m",607.318223,"j","j","right","(862, 362)",165,1,624.153463521891,-76.9578146455731," 2026.16",189,2,1,NA
"35",176,"left","SHINEd_Dog_CockerSpaniel.jpg","congruent","n",624.143795,"f","f","left","(148, 362)",306,1,641.265867287528,-59.8454108799357," 1408.80",29,4,1,1
"35",177,"left","SHINEd_Bathtub.jpg","incongruent","m",651.446615,"j","j","right","(148, 362)",58,1,668.855519053166,-32.2557591142982," 2160.22",21,3,1,1
"35",178,"right","SHINEd_MusicSheet.jpg","congruent","m",615.551385,"j","j","right","(862, 362)",13,1,633.247120818804,-67.8641573486606," 1264.40",409,4,1,1
"35",179,"right","SHINEd_Snail.jpg","incongruent","n",604.440924,"f","f","left","(862, 362)",241,1,622.423491584441,-78.6877865830231," 2367.68",201,3,1,1
"35",180,"left","SHINEd_Dog_Bulldog.jpg","congruent","n",607.491167,"j","f","left","(148, 362)",326,0,625.760566350079,-75.3507118173856," 2023.26",73,1,1,NA
"35",181,"right","SHINEd_FileDivider.jpg","congruent","m",690.802456,"j","j","right","(862, 362)",69,1,709.358687115716,8.2474089482519," 1048.32",385,3,1,1
"35",182,"left","SHINEd_Glove_Rubber.jpg","incongruent","m",622.41105,"j","j","right","(148, 362)",138,1,641.254112881354,-59.8571652861106,"10255.62",408,3,0,0
"35",183,"left","SHINEd_Gecko.jpg","congruent","n",505.0356,"f","f","left","(148, 362)",370,1,524.165494646991,-176.945783520473,"  855.47",358,3,1,1
"35",184,"left","SHINEd_RollerBlade.jpg","incongruent","m",549.581582,"j","j","right","(148, 362)",178,1,568.998308412628,-132.112969754836," 1310.06",373,3,0,0
"35",185,"left","SHINEd_Starfish.jpg","congruent","n",544.455619,"f","f","left","(148, 362)",378,1,564.159177178266,-136.952100989198,"  823.20",419,3,1,1
"35",186,"left","SHINEd_Car_Vintage.jpg","incongruent","m",532.183053,"j","j","right","(148, 362)",186,1,552.173442943903,-148.937835223561," 2082.26",93,3,0,0
"35",187,"right","SHINEd_Gum_Pack.jpg","congruent","m",719.901644,"j","j","right","(862, 362)",77,1,740.178865709541,39.0675875420769,"  761.75",314,4,1,1
"35",188,"left","SHINEd_Mirror_Makeup.jpg","incongruent","m",643.631334,"j","j","right","(148, 362)",122,1,664.195387475179,-36.9158906922856," 1096.73",254,4,1,1
"35",189,"left","SHINEd_Bugle.jpg","incongruent","m",943.758628,"j","j","right","(148, 362)",14,1,964.609513240816,263.498235073352,"  944.88",207,4,1,1
"35",190,"right","SHINEd_Bowl_Wooden.jpg","congruent","m",762.013689,"j","j","right","(862, 362)",141,1,783.151406006453,82.0401278389894," 1040.23",79,4,1,1
"35",191,"right","SHINEd_Clock_Radio.jpg","congruent","m",853.982026,"j","j","right","(862, 362)",93,1,875.406574772091,174.295296604627," 1122.75",127,3,1,1
"35",192,"left","SHINEd_Cane_Metal.jpg","incongruent","m",785.934473,"j","j","right","(148, 362)",190,1,807.645853537728,106.534575370264,"  770.87",280,4,1,1
"35",193,"right","SHINEd_cottonplant.jpg","incongruent","n",565.172297,"f","f","left","(862, 362)",297,1,587.170509303366,-113.940768864098," 1247.13",151,2,1,NA
"35",194,"right","SHINEd_BusStop.jpg","congruent","m",617.682998,"j","j","right","(862, 362)",145,1,639.968042069004,-61.1432360984606," 1660.48",90,3,1,1
"35",195,"left","SHINEd_PencilSharpener.jpg","incongruent","m",972.606839,"j","j","right","(148, 362)",74,1,995.178714834641,294.067436667177," 1467.73",322,3,1,1
"35",196,"right","SHINEd_Crown.jpg","congruent","m",786.643631,"j","j","right","(862, 362)",193,1,809.502338600279,108.391060432814," 6577.91",306,3,1,1
"35",197,"right","SHINEd_Chair_High.jpg","congruent","m",765.524246,"j","j","right","(862, 362)",209,1,788.669785365916,87.5585071984518,"  922.38",362,2,0,0
"35",198,"left","SHINEd_volcano copy.jpg","congruent","n",856.707518,"j","f","left","(148, 362)",234,0,880.139889131554,179.028610964089," 1491.19",38,4,1,1
"35",199,"right","SHINEd_Collards.jpg","incongruent","n",973.095422,"f","f","left","(862, 362)",445,1,996.814624897191,295.703346729727," 2887.09",182,3,1,1
"35",200,"left","SHINEd_honeydew.jpg","congruent","n",713.028283,"f","f","left","(148, 362)",330,1,737.034317662828,35.9230394953644," 3887.87",311,2,1,NA
"35",201,"right","SHINEd_Cabinet_Display.jpg","congruent","m",642.587381,"j","j","right","(862, 362)",205,1,666.880247428466,-34.231030738998," 1526.81",166,3,1,1
"35",202,"right","SHINEd_Broccoli.jpg","incongruent","n",592.433171,"f","f","left","(862, 362)",253,1,617.012869194103,-84.0984089733606,"  889.74",149,3,1,1
"35",203,"right","SHINEd_Mitt_Oven.jpg","congruent","m",577.633322,"j","j","right","(862, 362)",137,1,602.499851959741,-98.6114262077231," 5131.82",49,2,1,NA
"35",204,"left","SHINEd_peacockfeather.jpg","congruent","n",622.220078,"f","f","left","(148, 362)",382,1,647.373439725378,-53.7378384420856,"  955.55",238,3,1,1
"35",205,"left","SHINEd_Jacket_Suit.jpg","incongruent","m",568.390343,"j","j","right","(148, 362)",2,1,593.830536491016,-107.280741676448," 1348.64",26,4,1,1
"35",206,"right","SHINEd_Pineapple.jpg","incongruent","n",652.177767,"f","f","left","(862, 362)",353,1,677.904792256654,-23.2064859108106,"  984.36",292,4,1,1
"35",207,"left","SHINEd_ladybug.jpg","congruent","n",607.823517,"f","f","left","(148, 362)",238,1,633.837374022291,-67.273904145173," 1182.14",154,2,1,NA
"35",208,"left","SHINEd_Beater_Electric.jpg","incongruent","m",690.605969,"j","j","right","(148, 362)",42,1,716.906657787928,15.7953796204644," 1021.66",455,2,0,0
"35",209,"left","SHINEd_LightHouse.jpg","incongruent","m",702.059728,"j","j","right","(148, 362)",146,1,728.647248553566,27.5359703861019,"  998.75",395,3,0,0
"35",210,"left","SHINEd_Currants.jpg","congruent","n",648.367653,"f","f","left","(148, 362)",254,1,675.242005319203,-25.8692728482606," 1954.52",71,2,1,NA
"35",211,"left","SHINEd_fox.jpg","congruent","n",628.553386,"j","f","left","(148, 362)",334,0,655.714570084841,-45.3967080826231," 1310.41",61,3,1,1
"35",212,"right","SHINEd_Branch.jpg","incongruent","n",783.998182,"f","f","left","(862, 362)",333,1,811.446197850478,110.334919683014," 1164.69",338,3,1,1
"35",213,"right","SHINEd_Fish_Rockbass.jpg","incongruent","n",636.25767,"f","f","left","(862, 362)",341,1,663.992517616116,-37.1187605513481," 1481.99",13,4,1,1
"35",214,"left","SHINEd_Nuts_Walnut.jpg","congruent","n",679.854899,"f","f","left","(148, 362)",446,1,707.876578381754,6.76530021428946," 1506.07",143,3,1,1
"35",215,"right","SHINEd_Leg.jpg","incongruent","n",522.660157,"j","f","left","(862, 362)",405,0,550.968668147391,-150.142610020073," 1524.12",133,4,1,1
"35",216,"right","SHINEd_rhino horn.jpg","incongruent","n",NA,"miss","f","left","(862, 362)",249,0,NA,NA," 1038.81",324,3,1,1
"35",217,"left","SHINEd_BearPolar.jpg","congruent","n",642.751749,"f","f","left","(148, 362)",386,1,671.633923678666,-29.4773544887981," 2484.35",27,3,1,1
"35",218,"left","SHINEd_Hourglass.jpg","incongruent","m",830.735625,"j","j","right","(148, 362)",110,1,859.904631444304,158.793353276839," 1153.98",72,4,1,1
"35",219,"right","SHINEd_Mango.jpg","incongruent","n",634.604983,"f","f","left","(862, 362)",277,1,664.060821209941,-37.0504569575231," 2343.51",3,4,1,1
"35",220,"left","SHINEd_Cranberry.jpg","congruent","n",637.716635,"f","f","left","(148, 362)",398,1,667.459304975579,-33.6519731918856," 2206.25",443,3,0,0
"35",221,"left","SHINEd_spinach.jpg","congruent","n",537.175727,"f","f","left","(148, 362)",266,1,567.205228741216,-133.906049426248," 1378.77",240,2,1,NA
"35",222,"right","SHINEd_ShoppingCart.jpg","congruent","m",756.836435,"j","j","right","(862, 362)",109,1,787.152768506854,86.0414903393895," 1609.04",390,2,0,0
"35",223,"right","SHINEd_Jetski.jpg","congruent","m",953.025233,"j","j","right","(862, 362)",181,1,983.628398272491,282.517120105027," 1217.50",179,3,1,1
"35",224,"right","SHINEd_pumpkinseeds-.jpg","incongruent","n",588.427367,"f","f","left","(862, 362)",237,1,619.317364038129,-81.7939141293356," 1260.32",92,4,1,1
"35",225,"left","SHINEd_Scooter.jpg","incongruent","m",830.84713,"j","j","right","(148, 362)",174,1,862.023958803766,160.912680636302," 1659.85",108,3,1,1
"35",226,"right","SHINEd_Cannon.jpg","congruent","m",586.380474,"j","j","right","(862, 362)",61,1,617.844134569404,-83.2671435980605," 1128.64",268,3,0,0
"35",227,"left","SHINEd_Ball_Bowling.jpg","incongruent","m",NA,"miss","j","right","(148, 362)",134,0,NA,NA," 1529.69",17,4,1,1
"35",228,"left","SHINEd_USBKey.jpg","incongruent","m",633.468362,"j","j","right","(148, 362)",90,1,665.505686100678,-35.6055920667856," 1381.01",355,4,1,1
