"participant","trial_index","screenposition","stimulus","trialtype","classifyenc","rt","response","responsecorrect","responsecorrect_side","screenlocation","stimnum","acc","rtResidual","rtResidualC","rt_rec","trialno_rec","ratingConfidence","acc_rec","memoryHits.hc"
"37",1,"left","SHINEd_Bandage_Adhesive.jpg","incongruent","m",854.108814,"j","j","right","(148, 362)",107,1,781.579329358858,141.061992968723,"  987.52",287,3,0,0
"37",2,"left","SHINEd_Cauliflower.jpg","congruent","n",648.099363,"f","f","left","(148, 362)",291,1,576.202567886115,-64.3147685040197," 1053.25",220,3,1,1
"37",3,"right","SHINEd_Bag_Camera.jpg","congruent","m",907.429372,"j","j","right","(862, 362)",216,1,836.165266413379,195.647930023244," 1153.68",221,3,1,1
"37",4,"left","SHINEd_SpongeScrubbing.jpg","incongruent","m",823.219168,"f","j","right","(148, 362)",139,0,752.587751940643,112.070415550508," 1271.39",97,4,1,1
"37",5,"left","SHINEd_dates_fresh.jpg","congruent","n",802.949748,"f","f","left","(148, 362)",319,1,732.951021467907,92.4336850777724," 1388.59",410,2,1,NA
"37",6,"right","SHINEd_blackberry.jpg","incongruent","n",838.553953,"f","f","left","(862, 362)",280,1,769.187915995171,128.670579605036,"  911.44",296,3,1,1
"37",7,"left","SHINEd_organutan.jpg","congruent","n",859.388512,"f","f","left","(148, 362)",343,1,790.655164522435,150.1378281323,"  799.83",54,4,1,1
"37",8,"left","SHINEd_PaperCutter.jpg","incongruent","m",709.062597,"j","j","right","(148, 362)",31,1,640.961939049699,0.444602659564303," 1567.34",262,4,1,1
"37",9,"left","SHINEd_turkey.jpg","congruent","n",602.068561,"f","f","left","(148, 362)",391,1,534.600592576963,-105.916743813172," 2856.88",419,2,1,NA
"37",10,"left","SHINEd_Snowboard.jpg","incongruent","m",677.282589,"j","j","right","(148, 362)",23,1,610.447310104227,-30.0700262859077," 1368.75",354,4,1,1
"37",11,"left","SHINEd_bear.jpg","congruent","n",831.612096,"f","f","left","(148, 362)",271,1,765.409506631491,124.892170241356," 1401.38",56,4,1,1
"37",12,"left","SHINEd_Cable_AudioSplitter.jpg","incongruent","m",707.880142,"j","j","right","(148, 362)",91,1,642.310242158755,1.79290576862019," 1611.36",285,3,1,1
"37",13,"right","SHINEd_Boombox.jpg","congruent","m",766.140453,"j","j","right","(862, 362)",92,1,701.203242686019,60.6859062958842," 1335.92",170,4,1,1
"37",14,"left","SHINEd_Playard.jpg","incongruent","m",871.757368,"j","j","right","(148, 362)",59,1,807.452847213283,166.935510823148," 1373.93",414,3,0,0
"37",15,"left","SHINEd_Hedgehog.jpg","congruent","n",787.135163,"f","f","left","(148, 362)",243,1,723.463331740547,82.9459953504122,"  892.95",145,4,1,1
"37",16,"left","SHINEd_Car_Sedan.jpg","incongruent","m",647.442078,"j","j","right","(148, 362)",183,1,584.402936267811,-56.1144001223239," 1373.64",438,3,0,0
"37",17,"right","SHINEd_Bus_DoubleDecker.jpg","congruent","m",705.929143,"j","j","right","(862, 362)",184,1,643.522690795075,3.00535440494003," 2327.90",390,3,1,1
"37",18,"right","SHINEd_alpaca_fo.jpg","incongruent","n",783.083375,"f","f","left","(862, 362)",400,1,721.309612322339,80.7922759322041," 1746.13",372,2,0,0
"37",19,"left","SHINEd_Dress_Blue.jpg","incongruent","m",674.542652,"j","j","right","(148, 362)",3,1,613.401578849603,-27.115757540532,"  944.09",367,4,1,1
"37",20,"right","SHINEd_Fan_Ceiling.jpg","congruent","m",806.108828,"j","j","right","(862, 362)",48,1,745.600444376867,105.083107986732," 1084.54",362,3,1,1
"37",21,"left","SHINEd_Dresser.jpg","incongruent","m",785.150098,"j","j","right","(148, 362)",203,1,725.274403904131,84.7570675139959," 2479.21",258,3,1,1
"37",22,"left","SHINEd_WateringCan_PlasticDarkGreen.jpg","incongruent","m",612.691992,"j","j","right","(148, 362)",215,1,553.448987431395,-87.06834895874," 1290.53",363,4,1,1
"37",23,"left","SHINEd_edamame.jpg","congruent","n",832.511063,"f","f","left","(148, 362)",303,1,773.900747958658,133.383411568524,"  839.91",112,4,1,1
"37",24,"left","SHINEd_Binoculars.jpg","incongruent","m",550.571882,"j","j","right","(148, 362)",199,1,492.594256485922,-147.923079904212," 1301.99",434,3,0,0
"37",25,"right","SHINEd_Card_TwoSpade.jpg","congruent","m",NA,"miss","j","right","(862, 362)",88,0,NA,NA," 1029.44",218,4,1,1
"37",26,"left","SHINEd_Basket_Plastic.jpg","incongruent","m",924.848852,"j","j","right","(148, 362)",211,1,868.13660554045,227.619269150316," 4161.17",358,2,0,0
"37",27,"right","SHINEd_CinderBlock.jpg","congruent","m",776.710906,"j","j","right","(862, 362)",108,1,720.631349067714,80.1140126775798," 1016.15",260,4,1,1
"37",28,"right","SHINEd_GasStation.jpg","congruent","m",619.966989,"j","j","right","(862, 362)",168,1,564.520121594978,-75.9972147951562," 1161.83",375,4,1,1
"37",29,"left","SHINEd_Shoes_Pumps.jpg","incongruent","m",777.330494,"j","j","right","(148, 362)",151,1,722.516316122242,81.9989797321078," 1565.34",8,4,1,1
"37",30,"right","SHINEd_Oneholepunch.jpg","congruent","m",717.419297,"j","j","right","(862, 362)",76,1,663.237808649506,22.7204722593718," 1299.96",400,2,1,NA
"37",31,"left","SHINEd_whistle.jpg","incongruent","m",672.922471,"j","j","right","(148, 362)",79,1,619.37367217677,-21.1436642133643," 1895.34",185,3,1,1
"37",32,"left","SHINEd_Box_Staples.jpg","incongruent","m",664.714721,"j","j","right","(148, 362)",67,1,611.798611704034,-28.7187246861003," 1455.82",154,4,1,1
"37",33,"left","SHINEd_Panda.jpg","congruent","n",716.517477,"f","f","left","(148, 362)",251,1,664.234057231298,23.7167208411636,"  894.09",397,4,1,1
"37",34,"right","SHINEd_raspberry.jpg","incongruent","n",848.558118,"f","f","left","(862, 362)",456,1,796.907387758562,156.390051368428," 2456.51",99,2,1,NA
"37",35,"right","SHINEd_Cologne.jpg","congruent","m",NA,"miss","j","right","(862, 362)",116,0,NA,NA," 1433.90",391,4,1,1
"37",36,"right","SHINEd_tapir copy.jpg","incongruent","n",704.776118,"j","f","left","(862, 362)",408,0,654.39076681309,13.8734304229556,"  881.81",230,3,1,1
"37",37,"right","SHINEd_Hammer.jpg","congruent","m",708.136633,"j","j","right","(862, 362)",36,1,658.383971340354,17.8666349502195," 1182.41",343,3,1,1
"37",38,"left","SHINEd_CapGraduation.jpg","incongruent","m",680.356795,"j","j","right","(148, 362)",187,1,631.236822867618,-9.28051352251645," 1128.83",94,4,1,1
"37",39,"left","SHINEd_Potato.jpg","congruent","n",643.099885,"f","f","left","(148, 362)",423,1,594.612602394882,-45.9047339952525,"  948.88",401,2,1,NA
"37",40,"right","SHINEd_blueberries.jpg","incongruent","n",NA,"miss","f","left","(862, 362)",232,0,NA,NA," 1622.51",77,4,1,1
"37",41,"left","SHINEd_pistachios-.jpg","congruent","n",697.586428,"f","f","left","(148, 362)",411,1,650.36452444941,9.84718805927539," 1542.09",277,3,1,1
"37",42,"right","SHINEd_Pepper_Green.jpg","incongruent","n",590.169805,"f","f","left","(862, 362)",372,1,543.580590976674,-96.9367454134606," 1110.86",340,3,1,1
"37",43,"left","SHINEd_sanddollar.jpg","congruent","n",698.413834,"f","f","left","(148, 362)",295,1,652.457309503938,11.9399731138033," 1402.29",194,4,1,1
"37",44,"left","SHINEd_Cup_Bathroom.jpg","incongruent","m",577.428615,"j","j","right","(148, 362)",51,1,532.104780031202,-108.412556358933," 3271.28",326,2,1,NA
"37",45,"right","SHINEd_Ginger.jpg","incongruent","n",881.695273,"f","f","left","(862, 362)",236,1,837.004127558466,196.486791168331,"  827.28",365,4,1,1
"37",46,"right","SHINEd_DoubleBass.jpg","congruent","m",548.880318,"j","j","right","(862, 362)",8,1,504.82186208573,-135.695474304405," 1548.99",210,3,0,0
"37",47,"right","SHINEd_Hazelnut.jpg","incongruent","n",647.659427,"f","f","left","(862, 362)",252,1,604.233660612994,-36.2836757771407," 1131.88",278,3,1,1
"37",48,"right","SHINEd_ant.jpg","incongruent","n",588.382143,"f","f","left","(862, 362)",328,1,545.589066140258,-94.9282702498767,"  885.60",344,4,1,1
"37",49,"right","SHINEd_Golf_Club.jpg","congruent","m",535.008015,"j","j","right","(862, 362)",132,1,492.847627667522,-147.669708722613," 1033.11",180,4,1,1
"37",50,"right","SHINEd_Lobster.jpg","incongruent","n",540.543971,"f","f","left","(862, 362)",288,1,499.016273194786,-141.501063195349," 1872.14",325,3,1,1
"37",51,"left","SHINEd_Shark_GreatWhite.jpg","congruent","n",655.738664,"f","f","left","(148, 362)",287,1,614.84365572205,-25.6736806680849," 1023.37",18,4,1,1
"37",52,"right","SHINEd_HedgeShears.jpg","congruent","m",683.668133,"j","j","right","(862, 362)",28,1,643.405814249314,2.88847785917915," 2359.17",60,2,1,NA
"37",53,"left","SHINEd_LightBulb_White.jpg","incongruent","m",655.586179,"j","j","right","(148, 362)",47,1,615.956549776578,-24.5607866135569," 1460.10",126,3,1,1
"37",54,"right","SHINEd_BookShelf.jpg","congruent","m",635.008517,"j","j","right","(862, 362)",204,1,596.011577303842,-44.5057590862929," 1757.65",379,2,0,0
"37",55,"right","SHINEd_SpiderWeb.jpg","incongruent","n",598.224109,"j","f","left","(862, 362)",348,0,559.859858831106,-80.6574775590289," 1302.46",23,4,1,1
"37",56,"right","SHINEd_Hand.jpg","incongruent","n",754.019512,"f","f","left","(862, 362)",284,1,716.28795135837,75.770614968235," 1263.09",387,4,0,0
"37",57,"right","SHINEd_ScannerShoplifting.jpg","congruent","m",757.837683,"j","j","right","(862, 362)",100,1,720.738811885634,80.221475495499," 1853.56",127,4,1,1
"37",58,"right","SHINEd_eggs.jpg","incongruent","n",671.773718,"f","f","left","(862, 362)",296,1,635.307536412898,-5.20979997723698," 1784.86",291,3,0,0
"37",59,"left","SHINEd_clementine.jpg","congruent","n",611.488427,"f","f","left","(148, 362)",359,1,575.654934940162,-64.862401449973,"  950.29",81,4,1,1
"37",60,"right","SHINEd_beetle.jpg","incongruent","n",673.706712,"f","f","left","(862, 362)",356,1,638.505909467426,-2.01142692270903," 4225.82",302,2,1,NA
"37",61,"right","SHINEd_Boar.jpg","incongruent","n",516.901077,"f","f","left","(862, 362)",264,1,482.332963994689,-158.184372395445," 4109.67",389,3,1,1
"37",62,"left","SHINEd_Seal_animal.jpg","congruent","n",598.93062,"f","f","left","(148, 362)",379,1,564.995196521953,-75.5221398681812,"  977.07",396,3,1,1
"37",63,"left","SHINEd_Toolbox_RedOpen.jpg","incongruent","m",840.96917,"j","j","right","(148, 362)",39,1,807.666436049217,167.149099659083," 2105.69",39,4,1,1
"37",64,"right","SHINEd_Lighter_Yellow.jpg","congruent","m",775.388195,"j","j","right","(862, 362)",104,1,742.718150576481,102.200814186347," 1414.51",392,3,1,1
"37",65,"left","SHINEd_MalletJudge.jpg","incongruent","m",802.82655,"j","j","right","(148, 362)",35,1,770.789195103745,130.271858713611," 1046.96",228,4,1,1
"37",66,"left","SHINEd_Iguana.jpg","congruent","n",544.359298,"f","f","left","(148, 362)",387,1,512.954632631009,-127.562703759125,"  932.37",227,3,1,1
"37",67,"right","SHINEd_TigerWhite.jpg","incongruent","n",465.196893,"f","f","left","(862, 362)",440,1,434.424917158273,-206.092419231861," 1652.98",157,3,1,1
"37",68,"right","SHINEd_Sheep.jpg","incongruent","n",429.284237,"f","f","left","(862, 362)",300,1,399.144950685537,-241.372385704597," 1038.43",289,3,1,1
"37",69,"right","SHINEd_Dart.jpg","congruent","m",584.434117,"j","j","right","(862, 362)",20,1,554.927520212801,-85.5898161773333,"  941.95",79,4,1,1
"37",70,"right","SHINEd_Lettuce_GreenLeaf.jpg","incongruent","n",581.019512,"f","f","left","(862, 362)",248,1,552.145604740065,-88.3717316500694," 2282.32",167,3,1,1
"37",71,"right","SHINEd_ornament.jpg","congruent","m",712.40374,"f","j","right","(862, 362)",224,0,684.162522267329,43.6451858771946," 1766.26",433,3,1,1
"37",72,"right","SHINEd_dove.jpg","incongruent","n",859.110537,"f","f","left","(862, 362)",308,1,831.502008794593,190.984672404459," 1599.27",313,2,1,NA
"37",73,"right","SHINEd_Ball_Football.jpg","congruent","m",678.854235,"j","j","right","(862, 362)",128,1,651.878396321857,11.3610599317226," 1186.63",208,4,1,1
"37",74,"left","SHINEd_Candleholder_LampShaped.jpg","incongruent","m",963.313257,"j","j","right","(148, 362)",111,1,936.970107849121,296.452771458987," 2248.19",85,2,1,NA
"37",75,"left","SHINEd_Stingray.jpg","congruent","n",630.873016,"f","f","left","(148, 362)",315,1,605.162556376385,-35.3547800137495,"  973.11",95,4,1,1
"37",76,"right","SHINEd_alarm.jpg","congruent","m",736.677284,"j","j","right","(862, 362)",96,1,711.599513903649,71.0821775135145," 2491.53",406,4,1,1
"37",77,"right","SHINEd_Dill.jpg","incongruent","n",821.028194,"f","f","left","(862, 362)",256,1,796.583113430913,156.065777040778," 1923.77",236,2,1,NA
"37",78,"right","SHINEd_Hat_Explorer.jpg","congruent","m",679.946255,"j","j","right","(862, 362)",188,1,656.133863958177,15.6165275680424," 1853.09",108,3,1,1
"37",79,"right","SHINEd_Cougar.jpg","incongruent","n",595.486533,"f","f","left","(862, 362)",276,1,572.306831485441,-68.2105049046936," 1352.39",174,3,1,1
"37",80,"right","SHINEd_Cassette_Audio.jpg","congruent","m",566.916864,"j","j","right","(862, 362)",148,1,544.369852012705,-96.1474843774296," 1412.45",295,3,1,1
"37",81,"left","SHINEd_Fence_Wooden.jpg","incongruent","m",667.43046,"j","j","right","(148, 362)",163,1,645.516137539969,4.99880114983441," 1535.72",207,3,0,0
"37",82,"right","SHINEd_Glasses_Reading.jpg","congruent","m",862.654271,"j","j","right","(862, 362)",200,1,841.372638067233,200.855301677098," 1388.56",355,3,1,1
"37",83,"right","SHINEd_Pig.jpg","incongruent","n",523.150955,"f","f","left","(862, 362)",424,1,502.502011594497,-138.015324795638,"  986.08",186,3,1,1
"37",84,"right","SHINEd_Guitar_Acoustic.jpg","congruent","m",552.608219,"j","j","right","(862, 362)",12,1,532.591965121761,-107.925371268374," 1201.31",182,3,0,0
"37",85,"right","SHINEd_Squid_Pink.jpg","incongruent","n",563.486603,"f","f","left","(862, 362)",336,1,544.103038649025,-96.4142977411098," 1235.29",91,3,0,0
"37",86,"right","SHINEd_Lock_Combination.jpg","congruent","m",583.975043,"j","j","right","(862, 362)",64,1,565.224168176289,-75.2931682138457," 3206.19",9,2,0,0
"37",87,"left","SHINEd_Ferret.jpg","congruent","n",641.312072,"f","f","left","(148, 362)",239,1,623.193886703553,-17.3234496865819,"  870.57",189,3,1,1
"37",88,"left","SHINEd_Razor.jpg","incongruent","m",620.839077,"j","j","right","(148, 362)",119,1,603.353581230817,-37.1637551593178," 1512.83",142,3,0,0
"37",89,"right","SHINEd_Bib.jpg","congruent","m",768.862441,"j","j","right","(862, 362)",136,1,752.009634758081,111.492298367946,"  869.79",80,4,1,1
"37",90,"right","SHINEd_lorises.jpg","incongruent","n",580.583629,"f","f","left","(862, 362)",428,1,564.363512285345,-76.1538241047899," 2429.16",317,2,0,0
"37",91,"right","SHINEd_Kangaroo.jpg","incongruent","n",479.174021,"f","f","left","(862, 362)",312,1,463.586593812609,-176.930742577526,"  972.11",111,4,1,1
"37",92,"left","SHINEd_Hippopotamus.jpg","congruent","n",915.171275,"f","f","left","(148, 362)",367,1,900.216537339873,259.699200949738," 2607.05",256,3,1,1
"37",93,"left","SHINEd_Microwave.jpg","incongruent","m",526.609102,"j","j","right","(148, 362)",155,1,512.287053867137,-128.230282522998," 1231.67",253,3,1,1
"37",94,"right","SHINEd_Boots_KneeHigh.jpg","congruent","m",762.773305,"j","j","right","(862, 362)",152,1,749.083946394401,108.566610004266," 2070.99",430,3,1,1
"37",95,"right","SHINEd_Scorpion.jpg","incongruent","n",511.326111,"f","f","left","(862, 362)",396,1,498.269441921665,-142.24789446847," 1364.66",160,2,1,NA
"37",96,"left","SHINEd_Tractor_Orange.jpg","incongruent","m",618.650219,"j","j","right","(148, 362)",175,1,606.226239448928,-34.291096941206," 4441.31",50,2,1,NA
"37",97,"right","SHINEd_Light_Traffic.jpg","congruent","m",646.131492,"j","j","right","(862, 362)",180,1,634.340201976192,-6.17713441394208,"  989.85",195,4,1,1
"37",98,"left","SHINEd_Stapler_Regular.jpg","incongruent","m",433.056781,"j","j","right","(148, 362)",43,1,421.898180503457,-218.619155886678," 4070.53",143,2,1,NA
"37",99,"right","SHINEd_CanOpener.jpg","congruent","m",515.985435,"j","j","right","(862, 362)",160,1,505.459524030721,-135.057812359414," 1138.29",342,2,0,0
"37",100,"left","SHINEd_FireHydrant.jpg","incongruent","m",567.854105,"j","j","right","(148, 362)",167,1,557.960883557984,-82.5564528321501," 1089.48",211,1,0,0
"37",101,"left","SHINEd_Belt.jpg","incongruent","m",482.822071,"j","j","right","(148, 362)",195,1,473.561539085248,-166.955797304886,"  940.77",364,4,1,1
"37",102,"left","SHINEd_tooth.jpg","congruent","n",527.911359,"f","f","left","(148, 362)",363,1,519.283516612512,-121.233819777622," 8239.76",125,3,0,0
"37",103,"right","SHINEd_HorseshoeCrab.jpg","incongruent","n",769.562883,"f","f","left","(862, 362)",260,1,761.567730139776,121.050393749642," 1166.41",124,4,1,1
"37",104,"left","SHINEd_beluga.jpg","congruent","n",508.156696,"f","f","left","(148, 362)",431,1,500.79423266704,-139.723103723094," 1031.54",132,4,1,1
"37",105,"right","SHINEd_RibbonSpool.jpg","congruent","m",583.222085,"j","j","right","(862, 362)",80,1,576.492311194304,-64.0250251958303," 1062.99",59,4,1,1
"37",106,"right","SHINEd_Pear_Yellow.jpg","incongruent","n",644.055344,"f","f","left","(862, 362)",416,1,637.958259721568,-2.55907666856631,"  826.50",435,3,1,1
"37",107,"left","SHINEd_Sand.jpg","congruent","n",871.494701,"j","f","left","(148, 362)",279,0,866.030306248832,225.512969858698," 1501.58",184,3,1,1
"37",108,"right","SHINEd_maggotts.jpg","incongruent","n",NA,"miss","f","left","(862, 362)",392,0,NA,NA," 1512.14",118,2,0,0
"37",109,"right","SHINEd_Bottle_Bleach.jpg","congruent","m",701.213561,"j","j","right","(862, 362)",212,1,697.01454530336,56.4972089132256," 1505.82",284,3,0,0
"37",110,"right","SHINEd_papaya.jpg","incongruent","n",704.858245,"f","f","left","(862, 362)",292,1,701.291918830624,60.7745824404896," 1166.61",179,3,1,1
"37",111,"right","SHINEd_Outhouse.jpg","congruent","m",NA,"miss","j","right","(862, 362)",164,0,NA,NA," 1496.36",312,2,0,0
"37",112,"left","SHINEd_CDstack.jpg","incongruent","m",589.600772,"j","j","right","(148, 362)",15,1,587.299824885152,-53.2175115049825," 1396.78",84,4,1,1
"37",113,"left","SHINEd_aloe.jpg","congruent","n",705.962171,"f","f","left","(148, 362)",299,1,704.293913412416,63.7765770222815," 1891.60",329,2,0,0
"37",114,"left","SHINEd_Chimpanzee.jpg","congruent","n",573.353614,"f","f","left","(148, 362)",255,1,572.31804593968,-68.1992904504545," 1368.08",34,4,1,1
"37",115,"right","SHINEd_housefly.jpg","incongruent","n",640.079514,"f","f","left","(862, 362)",420,1,639.676635466944,-0.840700923190525," 1950.37",106,3,1,1
"37",116,"right","SHINEd_Clothespin_Red.jpg","congruent","m",643.468253,"j","j","right","(862, 362)",60,1,643.698063994208,3.18072760407344,"  872.29",86,4,1,1
"37",117,"right","SHINEd_Camel_Bactrian.jpg","incongruent","n",550.627871,"f","f","left","(862, 362)",344,1,551.490371521472,-89.0269648686626,"  870.33",270,4,1,1
"37",118,"left","SHINEd_Swan.jpg","congruent","n",586.833381,"f","f","left","(148, 362)",443,1,588.328571048736,-52.1887653413986," 1031.20",147,3,1,1
"37",119,"right","SHINEd_vulture.jpg","incongruent","n",670.536755,"f","f","left","(862, 362)",436,1,672.664634576,32.1472981858653," 1367.52",321,3,0,0
"37",120,"left","SHINEd_alligator.jpg","congruent","n",441.527937,"f","f","left","(148, 362)",355,1,444.288506103264,-196.228830286871," 1939.69",153,3,0,0
"37",121,"left","SHINEd_KeyHook_Empty.jpg","incongruent","m",564.239149,"j","j","right","(148, 362)",223,1,567.632407630528,-72.8849287596067," 1449.18",269,4,1,1
"37",122,"left","SHINEd_Seashell_RoseMurex.jpg","congruent","n",560.632238,"f","f","left","(148, 362)",327,1,564.658186157792,-75.8591502323427," 3240.17",100,4,1,1
"37",123,"right","SHINEd_sloth.jpg","incongruent","n",645.033195,"f","f","left","(862, 362)",304,1,649.691832685056,9.17449629492122,"  904.12",158,4,1,1
"37",124,"left","SHINEd_ashtray.jpg","incongruent","m",480.484813,"j","j","right","(148, 362)",227,1,485.77614021232,-154.741196177815," 1342.15",224,4,1,1
"37",125,"left","SHINEd_mapleleaf.jpg","congruent","n",579.227374,"f","f","left","(148, 362)",335,1,585.151390739584,-55.3659456505507," 1286.69",453,4,1,1
"37",126,"right","SHINEd_fig.jpg","incongruent","n",702.48581,"f","f","left","(862, 362)",412,1,709.042516266848,68.5251798767132," 1295.06",68,4,1,1
"37",127,"right","SHINEd_Exercise_Bike.jpg","congruent","m",730.130408,"j","j","right","(862, 362)",24,1,737.319803794112,96.8024674039771,"  964.02",116,4,1,1
"37",128,"right","SHINEd_Cow.jpg","incongruent","n",541.1318,"f","f","left","(862, 362)",320,1,548.953885321376,-91.5634510687589," 2071.18",2,4,1,1
"37",129,"right","SHINEd_Pitcher.jpg","congruent","m",664.598185,"j","j","right","(862, 362)",56,1,673.05295984864,32.535623458505," 1779.84",399,3,1,1
"37",130,"right","SHINEd_Banana.jpg","incongruent","n",789.173701,"f","f","left","(862, 362)",376,1,798.261165375904,157.743828985769," 1301.26",223,3,0,0
"37",131,"right","SHINEd_Button.jpg","congruent","m",472.755132,"j","j","right","(862, 362)",4,1,482.475285903168,-158.042050486967," 1392.40",239,3,1,1
"37",132,"right","SHINEd_FireExtinguisher.jpg","congruent","m",510.412527,"j","j","right","(862, 362)",112,1,520.765370430432,-119.751965959703," 1547.64",334,3,1,1
"37",133,"left","SHINEd_Ship_Model.jpg","incongruent","m",688.837637,"j","j","right","(148, 362)",83,1,699.823169957696,59.305833567561," 1200.30",26,4,1,1
"37",134,"left","SHINEd_Peach.jpg","congruent","n",620.415861,"f","f","left","(148, 362)",323,1,632.03408348496,-8.4832529051751," 1084.27",297,3,1,1
"37",135,"left","SHINEd_Bat_Baseball.jpg","incongruent","m",680.617218,"j","j","right","(148, 362)",127,1,692.868130012223,52.3507936220889," 1342.82",138,4,1,1
"37",136,"right","SHINEd_rhino.jpg","incongruent","n",523.111793,"f","f","left","(862, 362)",352,1,535.995394539488,-104.521941850647,"  775.28",247,3,1,1
"37",137,"right","SHINEd_Earrings_Dangling.jpg","congruent","m",534.05609,"j","j","right","(862, 362)",196,1,547.572381066752,-92.9449553233831,"  873.49",103,4,1,1
"37",138,"right","SHINEd_Fridge.jpg","congruent","m",443.12307,"j","j","right","(862, 362)",44,1,457.272050594015,-183.245285796119," 1070.29",133,4,1,1
"37",139,"right","SHINEd_Buffalo.jpg","incongruent","n",501.38465,"f","f","left","(862, 362)",432,1,516.166320121279,-124.351016268855,"  870.27",141,4,1,1
"37",140,"right","SHINEd_Hammock.jpg","congruent","m",473.53937,"j","j","right","(862, 362)",208,1,488.953729648543,-151.563606741591," 2373.75",385,2,1,NA
"37",141,"left","SHINEd_Organ.jpg","incongruent","m",694.038881,"j","j","right","(148, 362)",7,1,710.085930175807,69.5685937856727," 1268.95",249,3,0,0
"37",142,"right","SHINEd_Tape_Scotch.jpg","congruent","m",639.984593,"j","j","right","(862, 362)",228,1,656.664331703071,16.1469953129368," 1504.85",357,3,0,0
"37",143,"left","SHINEd_DryRack_Dishes.jpg","incongruent","m",484.800756,"j","j","right","(148, 362)",135,1,502.113184230335,-138.404152159799," 1630.08",137,3,0,0
"37",144,"right","SHINEd_Box_Package.jpg","congruent","m",328.965156,"j","j","right","(862, 362)",220,1,346.910273757599,-293.607062632535," 1358.27",305,4,1,1
"37",145,"left","SHINEd_MousepadAndMouse.jpg","incongruent","m",435.584074,"j","j","right","(148, 362)",99,1,454.161881284863,-186.355455105271," 1103.50",307,4,1,1
"37",146,"left","SHINEd_Bus_School.jpg","incongruent","m",575.772619,"j","j","right","(148, 362)",171,1,594.983115812127,-45.5342205780074,"  934.15",107,4,1,1
"37",147,"right","SHINEd_SnowGlobe.jpg","congruent","m",550.062466,"j","j","right","(862, 362)",84,1,569.905652339391,-70.6116840507434," 1197.15",281,4,1,1
"37",148,"right","SHINEd_gazelle.jpg","incongruent","n",432.946356,"f","f","left","(862, 362)",268,1,453.422231866655,-187.095104523479," 2044.68",14,3,1,1
"37",149,"left","SHINEd_Caribou.jpg","congruent","n",468.127453,"f","f","left","(148, 362)",435,1,489.236018393919,-151.281317996215," 3285.53",254,2,1,NA
"37",150,"left","SHINEd_moth.jpg","congruent","n",600.56395,"f","f","left","(148, 362)",427,1,622.305204921183,-18.2121314689515," 1611.91",261,3,0,0
"37",151,"left","SHINEd_white sesame.jpg","congruent","n",851.738641,"f","f","left","(148, 362)",371,1,874.112585448447,233.595249058313," 1289.08",64,3,1,1
"37",152,"right","SHINEd_bullrush.jpg","incongruent","n",855.058085,"j","f","left","(862, 362)",324,0,878.064718975711,237.547382585576," 1948.72",32,3,0,0
"37",153,"left","SHINEd_Harp.jpg","incongruent","m",673.772838,"j","j","right","(148, 362)",11,1,697.412161502975,56.8948251128404," 1448.70",456,3,1,1
"37",154,"left","SHINEd_Puffin.jpg","congruent","n",597.257662,"f","f","left","(148, 362)",231,1,621.529675030239,-18.9876613598956," 1718.81",386,3,0,0
"37",155,"right","SHINEd_Key_Car.jpg","congruent","m",577.909047,"j","j","right","(862, 362)",176,1,602.813749557503,-37.7035868326316,"  720.50",96,4,1,1
"37",156,"left","SHINEd_zebra.jpg","congruent","n",485.136406,"f","f","left","(148, 362)",447,1,510.673798084767,-129.843538305368," 1030.31",382,3,1,1
"37",157,"left","SHINEd_Box_GiftTopView.jpg","incongruent","m",946.565511,"j","j","right","(148, 362)",219,1,972.735592612031,332.218256221896," 1189.16",413,4,1,1
"37",158,"left","SHINEd_Oars.jpg","incongruent","m",757.395358,"j","j","right","(148, 362)",19,1,784.198129139295,143.68079274916,"  901.65",455,3,0,0
"37",159,"left","SHINEd_feather.jpg","congruent","n",566.317816,"j","f","left","(148, 362)",415,0,593.753276666559,-46.7640597235757," 4117.23",388,4,1,1
"37",160,"left","SHINEd_Nuts_Peanuts.jpg","congruent","n",625.91662,"f","f","left","(148, 362)",235,1,653.984770193823,13.4674338036882," 1128.20",217,3,1,1
"37",161,"left","SHINEd_firetruck.jpg","incongruent","m",549.224035,"j","j","right","(148, 362)",179,1,577.924874721087,-62.5924616690478," 2822.04",348,3,0,0
"37",162,"left","SHINEd_alfalfa.jpg","congruent","n",817.887859,"f","f","left","(148, 362)",283,1,847.221388248351,206.704051858216," 1031.49",425,2,1,NA
"37",163,"left","SHINEd_Notepad.jpg","incongruent","m",597.506403,"j","j","right","(148, 362)",71,1,627.472621775615,-13.0447146145198," 1592.13",150,4,1,1
"37",164,"left","SHINEd_tree.jpg","congruent","n",561.401055,"f","f","left","(148, 362)",375,1,591.999963302879,-48.5173730872558," 1403.68",303,3,0,0
"37",165,"right","SHINEd_Leaf_Green.jpg","incongruent","n",723.677687,"f","f","left","(862, 362)",448,1,754.909284830143,114.391948440008," 1850.74",319,3,1,1
"37",166,"right","SHINEd_Clam.jpg","incongruent","n",615.111231,"f","f","left","(862, 362)",340,1,646.975518357407,6.45818196727207,"  786.18",16,4,1,1
"37",167,"left","SHINEd_Olives.jpg","congruent","n",539.044768,"f","f","left","(148, 362)",419,1,571.541744884671,-68.975591505464," 1121.11",349,4,1,1
"37",168,"right","SHINEd_Squash_Butternut.jpg","incongruent","n",654.101263,"f","f","left","(862, 362)",444,1,687.230929411935,46.7135930218001,"  998.07",377,4,1,1
"37",169,"right","SHINEd_Garbage_GreenBin.jpg","congruent","m",665.636122,"j","j","right","(862, 362)",144,1,699.398477939199,58.881141549064," 1615.54",193,4,1,1
"37",170,"right","SHINEd_DrainPlug.jpg","congruent","m",716.900689,"j","j","right","(862, 362)",140,1,751.295734466463,110.778398076328,"  942.99",209,4,1,1
"37",171,"left","SHINEd_puffer-fish.jpg","congruent","n",592.185648,"f","f","left","(148, 362)",339,1,627.213382993727,-13.303953396408," 3446.84",191,2,1,NA
"37",172,"left","SHINEd_Light_Siren.jpg","incongruent","m",643.761304,"j","j","right","(148, 362)",95,1,679.421728520991,38.9043921308559,"  822.28",272,4,1,1
"37",173,"left","SHINEd_Fish_Swordfish.jpg","congruent","n",544.848811,"f","f","left","(148, 362)",331,1,581.141925048254,-59.3754113418801,"  790.30",356,4,1,1
"37",174,"right","SHINEd_Lion.jpg","incongruent","n",563.213128,"f","f","left","(862, 362)",316,1,600.138931575518,-40.3784048146161," 1285.36",409,2,1,NA
"37",175,"left","SHINEd_OnionRed.jpg","congruent","n",535.087346,"f","f","left","(148, 362)",383,1,572.645839102782,-67.8714972873521," 1220.61",393,4,1,1
"37",176,"left","SHINEd_goldfish.jpg","congruent","n",466.800549,"f","f","left","(148, 362)",275,1,504.991731630046,-135.525604760088," 1079.19",229,4,1,1
"37",177,"right","SHINEd_Bird_CanadianGoose.jpg","incongruent","n",422.126042,"f","f","left","(862, 362)",388,1,460.94991415731,-179.567422232824," 1837.84",139,2,1,NA
"37",178,"right","SHINEd_SpinningWheel.jpg","congruent","m",450.241551,"f","j","right","(862, 362)",124,0,489.698112684574,-150.81922370556," 1183.83",135,3,0,0
"37",179,"right","SHINEd_anteater.jpg","incongruent","n",843.894421,"f","f","left","(862, 362)",368,1,883.983672211838,243.466335821704," 3659.61",441,4,0,0
"37",180,"left","SHINEd_bat.jpg","congruent","n",559.487134,"f","f","left","(148, 362)",403,1,600.209074739102,-40.3082616510323," 1108.99",251,2,1,NA
"37",181,"left","SHINEd_sunflowers.jpg","congruent","n",764.516517,"f","f","left","(148, 362)",395,1,805.871147266366,165.353810876232," 1080.98",311,3,1,1
"37",182,"right","SHINEd_Cucumber.jpg","incongruent","n",783.08013,"f","f","left","(862, 362)",364,1,825.06744979363,184.550113403496,"  974.74",29,4,1,1
"37",183,"left","SHINEd_lime.jpg","congruent","n",579.5248,"f","f","left","(148, 362)",439,1,622.144809320894,-18.3725270692403," 1191.90",250,4,1,1
"37",184,"right","SHINEd_Pepper_Chili.jpg","incongruent","n",550.997586,"f","f","left","(862, 362)",240,1,594.250284848158,-46.2670515419764," 1140.78",408,4,1,1
"37",185,"right","SHINEd_Shampoo.jpg","congruent","m",562.502378,"j","j","right","(862, 362)",120,1,606.387766375422,-34.1295700147124,"  917.57",69,4,1,1
"37",186,"left","SHINEd_KiddiePool.jpg","incongruent","m",533.844822,"j","j","right","(148, 362)",87,1,578.362899902686,-62.1544364874484," 1817.10",78,3,1,1
"37",187,"right","SHINEd_CompassCardinal.jpg","congruent","m",577.381812,"j","j","right","(862, 362)",40,1,622.53257942995,-17.9847569601845," 1486.82",71,3,1,1
"37",188,"left","SHINEd_Bowtie.jpg","incongruent","m",966.231603,"j","j","right","(148, 362)",191,1,1012.01505995721,371.497723567079," 1187.27",440,4,1,1
"37",189,"right","SHINEd_groundhog.jpg","incongruent","n",520.79903,"f","f","left","(862, 362)",404,1,567.215176484478,-73.3021599056565," 1814.50",394,2,1,NA
"37",190,"left","SHINEd_penguin.jpg","congruent","n",524.838267,"f","f","left","(148, 362)",307,1,571.887103011742,-68.6302333783926," 1356.67",338,3,1,1
"37",191,"left","SHINEd_Crab.jpg","congruent","n",544.812033,"f","f","left","(148, 362)",259,1,592.493558539006,-48.0237778511285,"  940.42",395,3,1,1
"37",192,"left","SHINEd_birdie.jpg","incongruent","m",707.280686,"j","j","right","(148, 362)",131,1,755.59490106627,115.077564676135," 1118.93",131,2,1,NA
"37",193,"right","SHINEd_mint.jpg","incongruent","n",696.128888,"f","f","left","(862, 362)",360,1,745.075792593534,104.558456203399," 2133.12",346,2,1,NA
"37",194,"right","SHINEd_LifeJacket_BlueYellow.jpg","congruent","m",734.134981,"j","j","right","(862, 362)",16,1,783.714575120798,143.197238730663," 1147.41",35,4,1,1
"37",195,"left","SHINEd_Staircase_Curving.jpg","incongruent","m",559.842164,"j","j","right","(148, 362)",115,1,610.054447648062,-30.4628887420727," 1561.59",63,4,1,1
"37",196,"left","SHINEd_almond.jpg","congruent","n",546.428201,"f","f","left","(148, 362)",311,1,597.273174175326,-43.2441622148088," 1364.63",30,3,1,1
"37",197,"right","SHINEd_EspressoMachine.jpg","congruent","m",457.183268,"j","j","right","(862, 362)",156,1,508.66093070259,-131.856405687545," 2444.91",66,3,1,1
"37",198,"left","SHINEd_pine-cone-.jpg","congruent","n",506.819534,"f","f","left","(148, 362)",399,1,558.929886229854,-81.5874501602808," 1297.91",206,3,1,1
"37",199,"left","SHINEd_LetterMail.jpg","incongruent","m",668.95671,"j","j","right","(148, 362)",75,1,721.699751757118,81.1824153669832," 1328.29",263,4,1,1
"37",200,"left","SHINEd_elbow.jpg","congruent","n",672.49891,"f","f","left","(148, 362)",263,1,725.874641284382,85.3573048942472,"  840.61",36,4,1,1
"37",201,"right","SHINEd_seatAirplane.jpg","congruent","m",629.119308,"j","j","right","(862, 362)",172,1,683.127728811646,42.6103924215112," 1206.90",283,3,0,0
"37",202,"right","SHINEd_CoffeeBeans.jpg","incongruent","n",615.673849,"f","f","left","(862, 362)",332,1,670.31495933891,29.7976229487752," 1389.39",398,3,1,1
"37",203,"left","SHINEd_tentacle.jpg","congruent","n",803.263237,"f","f","left","(148, 362)",247,1,858.537036866174,218.019700476039,"  887.34",156,4,1,1
"37",204,"left","SHINEd_Flower_Daisy.jpg","congruent","n",759.844847,"j","f","left","(148, 362)",351,0,815.751336393438,175.234000003303," 1524.63",244,3,0,0
"37",205,"left","SHINEd_FloppyDisk.jpg","incongruent","m",584.806305,"j","j","right","(148, 362)",147,1,641.345483920702,0.828147530567007," 1663.07",422,3,0,0
"37",206,"right","SHINEd_Plum.jpg","incongruent","n",525.826234,"f","f","left","(862, 362)",244,1,582.998102447966,-57.519233942169," 1273.07",140,4,1,1
"37",207,"left","SHINEd_Owl.jpg","congruent","n",616.662802,"j","f","left","(148, 362)",407,0,674.46735997523,33.9500235850951,"  719.26",87,4,1,1
"37",208,"right","SHINEd_PassionFruit.jpg","incongruent","n",640.172083,"f","f","left","(862, 362)",452,1,698.609330502494,58.091994112359," 1972.37",120,3,1,1
"37",209,"right","SHINEd_Celery.jpg","incongruent","n",508.642986,"f","f","left","(862, 362)",272,1,567.712923029758,-72.8044133603771," 2078.62",25,3,1,1
"37",210,"left","SHINEd_Coral.jpg","congruent","n",518.8371,"f","f","left","(148, 362)",455,1,578.539726557021,-61.9776098331131,"  846.91",273,4,1,1
"37",211,"right","SHINEd_Blackboard.jpg","congruent","m",482.054268,"j","j","right","(862, 362)",72,1,542.389584084285,-98.1277523058491," 1344.72",52,4,1,1
"37",212,"left","SHINEd_Crayon_Green.jpg","incongruent","m",750.99512,"j","j","right","(148, 362)",63,1,811.963125611549,171.445789221415," 1150.42",331,4,1,1
"37",213,"left","SHINEd_KitchenCloth.jpg","incongruent","m",571.210604,"j","j","right","(148, 362)",143,1,632.811299138813,-7.70603725132117," 1174.69",444,3,0,0
"37",214,"right","SHINEd_PencilCase.jpg","congruent","m",614.48985,"j","j","right","(862, 362)",68,1,676.723234666077,36.2058982759429," 1484.55",213,3,0,0
"37",215,"left","SHINEd_Bed_Hospital.jpg","incongruent","m",643.138732,"j","j","right","(148, 362)",207,1,706.004806193341,65.4874698032068," 1280.44",412,3,0,0
"37",216,"left","SHINEd_Cage_Bird.jpg","incongruent","m",526.149486,"j","j","right","(148, 362)",123,1,589.648249720605,-50.8690866695292," 1625.78",306,2,0,0
"37",217,"left","SHINEd_tamarinds.jpg","congruent","n",449.991869,"j","f","left","(148, 362)",451,0,514.123322247869,-126.394014142265," 1423.34",121,3,1,1
"37",218,"left","SHINEd_MannequinBust.jpg","incongruent","m",571.661299,"j","j","right","(148, 362)",103,1,636.425441775133,-4.09189461500131," 1338.98",452,4,1,1
"37",219,"left","SHINEd_Stroller.jpg","incongruent","m",456.072856,"j","j","right","(148, 362)",55,1,521.469688302397,-119.047648087737," 1125.89",83,4,1,1
"37",220,"right","SHINEd_Tie.jpg","congruent","m",738.497717,"j","j","right","(862, 362)",192,1,804.527238829661,164.009902439527," 1003.56",448,4,1,1
"37",221,"right","SHINEd_IroningBoard.jpg","congruent","m",574.923157,"j","j","right","(862, 362)",52,1,641.585368356925,1.06803196679058," 1614.53",146,2,1,NA
"37",222,"left","SHINEd_Eggplant.jpg","congruent","n",602.582656,"f","f","left","(148, 362)",267,1,669.877556884189,29.3602204940547,"  751.93",181,4,1,1
"37",223,"right","SHINEd_Bolt.jpg","congruent","m",638.166341,"j","j","right","(862, 362)",32,1,706.093931411453,65.5765950213186," 1183.18",245,4,1,1
"37",224,"left","SHINEd_Barbecue_Gas.jpg","incongruent","m",594.379791,"j","j","right","(148, 362)",159,1,662.940070938717,22.4227345485825,"  846.78",279,4,1,1
"37",225,"right","SHINEd_chick hatch.jpg","incongruent","n",724.774514,"f","f","left","(862, 362)",384,1,793.967483465981,153.450147075847," 1101.83",265,4,1,1
"37",226,"left","SHINEd_Seahorse.jpg","congruent","n",553.218699,"f","f","left","(148, 362)",347,1,623.044357993245,-17.4729783968895,"  759.06",37,4,1,1
"37",227,"left","SHINEd_paddle ball.jpg","incongruent","m",741.746551,"j","j","right","(148, 362)",27,1,812.204899520509,171.687563130374,"  820.29",70,4,1,1
"37",228,"right","SHINEd_bee.jpg","incongruent","n",561.481417,"f","f","left","(862, 362)",380,1,632.572455047773,-7.94488134236159," 1309.28",12,4,1,1
