"participant","trial_index","screenposition","stimulus","trialtype","classifyenc","rt","response","responsecorrect","responsecorrect_side","screenlocation","stimnum","acc","rtResidual","rtResidualC","rt_rec","trialno_rec","ratingConfidence","acc_rec","memoryHits.hc"
"39",1,"right","SHINEd_Chimpanzee.jpg","incongruent","n",NA,"miss","f","left","(862, 362)",255,0,NA,NA,"  821.95",273,4,1,1
"39",2,"right","SHINEd_Razor.jpg","congruent","m",563.953129,"j","j","right","(862, 362)",119,1,532.484765456445,6.29713534037387," 1766.85",352,1,1,NA
"39",3,"right","SHINEd_KeyHook_Empty.jpg","congruent","m",477.856042,"j","j","right","(862, 362)",223,1,446.665490044899,-79.5221400711721," 1319.16",81,4,1,1
"39",4,"right","SHINEd_Flower_Daisy.jpg","incongruent","n",491.261817,"f","f","left","(862, 362)",351,1,460.34907663335,-65.8385534827215,"  614.56",163,4,1,1
"39",5,"right","SHINEd_Toolbox_RedOpen.jpg","congruent","m",456.625,"j","j","right","(862, 362)",39,1,425.9900712218,-100.197558894271,"  968.65",434,2,1,NA
"39",6,"right","SHINEd_Seahorse.jpg","incongruent","n",525.101974,"f","f","left","(862, 362)",347,1,494.744856810251,-31.4427733058204,"  975.69",112,4,1,1
"39",7,"left","SHINEd_Dill.jpg","congruent","n",659.587525,"f","f","left","(148, 362)",256,1,629.508219398702,103.32058928263," 4272.48",5,2,1,NA
"39",8,"left","SHINEd_Hammock.jpg","incongruent","m",557.563593,"j","j","right","(148, 362)",208,1,527.762098987152,1.5744688710806,"  670.86",88,4,1,1
"39",9,"left","SHINEd_mint.jpg","congruent","n",457.955806,"f","f","left","(148, 362)",360,1,428.432123575603,-97.7555065404688," 1276.87",159,4,1,1
"39",10,"right","SHINEd_Ferret.jpg","incongruent","n",559.397317,"f","f","left","(862, 362)",239,1,530.151446164053,3.96381604798175,"  928.04",186,4,1,1
"39",11,"right","SHINEd_Staircase_Curving.jpg","congruent","m",555.754677,"j","j","right","(862, 362)",115,1,526.786617752504,0.598987636432259,"  783.78",354,4,1,1
"39",12,"right","SHINEd_feather.jpg","incongruent","n",NA,"miss","f","left","(862, 362)",415,0,NA,NA,"  740.52",282,4,1,1
"39",13,"right","SHINEd_Box_GiftTopView.jpg","congruent","m",611.860894,"j","j","right","(862, 362)",219,1,583.448457929405,57.2608278133333," 1277.44",410,4,1,1
"39",14,"left","SHINEd_Oneholepunch.jpg","incongruent","m",552.766869,"j","j","right","(148, 362)",76,1,524.632244517855,-1.5553855982161," 1268.50",223,3,1,1
"39",15,"right","SHINEd_Bus_School.jpg","congruent","m",604.043451,"j","j","right","(862, 362)",171,1,576.186638106306,49.9990079902344," 1009.36",320,1,0,0
"39",16,"left","SHINEd_Card_TwoSpade.jpg","incongruent","m",666.597307,"j","j","right","(148, 362)",88,1,639.018305694756,112.830675578685,"  637.88",416,4,1,1
"39",17,"right","SHINEd_MannequinBust.jpg","congruent","m",584.429834,"j","j","right","(862, 362)",103,1,557.128644283207,30.9410141671355,"  654.68",430,4,1,1
"39",18,"right","SHINEd_moth.jpg","incongruent","n",619.25921,"f","f","left","(862, 362)",427,1,592.235831871658,66.048201755586,"  703.41",269,4,1,1
"39",19,"left","SHINEd_Tape_Scotch.jpg","incongruent","m",422.622516,"j","j","right","(148, 362)",228,1,395.876949460108,-130.310680655963," 1054.17",275,4,1,1
"39",20,"left","SHINEd_PassionFruit.jpg","congruent","n",755.451061,"f","f","left","(148, 362)",452,1,728.983306048558,202.795675932487,"  860.35",76,4,1,1
"39",21,"right","SHINEd_Iguana.jpg","incongruent","n",535.233927,"f","f","left","(862, 362)",387,1,509.043983637009,-17.1436464790624,"  670.80",194,4,1,1
"39",22,"left","SHINEd_alarm.jpg","incongruent","m",561.290033,"j","j","right","(148, 362)",96,1,535.37790122546,9.19027110938814," 1296.06",59,3,0,0
"39",23,"right","SHINEd_LightBulb_White.jpg","congruent","m",509.46818,"j","j","right","(862, 362)",47,1,483.83385981391,-42.3537703021613,"  878.74",114,4,1,1
"39",24,"right","SHINEd_OnionRed.jpg","incongruent","n",505.508319,"f","f","left","(862, 362)",383,1,480.151810402361,-46.0358197137108,"  757.93",242,4,1,1
"39",25,"right","SHINEd_Basket_Plastic.jpg","congruent","m",470.088695,"j","j","right","(862, 362)",211,1,445.009997990811,-81.1776321252603," 1767.05",300,3,1,1
"39",26,"left","SHINEd_Dart.jpg","incongruent","m",673.098672,"j","j","right","(148, 362)",20,1,648.297786579262,122.11015646319,"  582.56",280,4,1,1
"39",27,"right","SHINEd_Playard.jpg","congruent","m",494.171806,"j","j","right","(862, 362)",59,1,469.648732167712,-56.5388979483592," 1006.76",37,4,1,1
"39",28,"left","SHINEd_vulture.jpg","congruent","n",449.946583,"f","f","left","(148, 362)",436,1,425.701320756163,-100.486309359909," 1182.57",442,3,0,0
"39",29,"right","SHINEd_dates_fresh.jpg","incongruent","n",582.713349,"f","f","left","(862, 362)",319,1,558.745898344613,32.5582682285419," 2024.41",70,2,1,NA
"39",30,"right","SHINEd_Fence_Wooden.jpg","congruent","m",562.227869,"j","j","right","(862, 362)",163,1,538.538229933064,12.3505998169925," 1798.15",56,2,1,NA
"39",31,"left","SHINEd_ScannerShoplifting.jpg","incongruent","m",655.431712,"j","j","right","(148, 362)",100,1,632.019884521514,105.832254405443," 1117.99",415,4,1,1
"39",32,"left","SHINEd_SnowGlobe.jpg","incongruent","m",677.266822,"j","j","right","(148, 362)",84,1,654.132806109965,127.945175993894,"  799.12",38,4,1,1
"39",33,"left","SHINEd_maggotts.jpg","congruent","n",793.22982,"f","f","left","(148, 362)",392,1,770.373615698416,244.185985582344,"  992.14",161,4,1,1
"39",34,"left","SHINEd_Bus_DoubleDecker.jpg","incongruent","m",549.351414,"j","j","right","(148, 362)",184,1,526.773021286866,0.58539117079456,"  973.96",452,3,0,0
"39",35,"left","SHINEd_HorseshoeCrab.jpg","congruent","n",625.05074,"f","f","left","(148, 362)",260,1,602.750158875317,76.5625287592451,"  861.01",155,4,1,1
"39",36,"right","SHINEd_Olives.jpg","incongruent","n",547.816329,"f","f","left","(862, 362)",419,1,525.793559463767,-0.394070652304349," 1111.32",233,4,1,1
"39",37,"left","SHINEd_Hazelnut.jpg","congruent","n",690.183711,"f","f","left","(148, 362)",252,1,668.438753052218,142.251122936146,"  622.87",425,4,1,1
"39",38,"left","SHINEd_Bib.jpg","incongruent","m",540.798368,"j","j","right","(148, 362)",136,1,519.331221640668,-6.85640847540329,"  726.69",431,4,1,1
"39",39,"right","SHINEd_Snowboard.jpg","congruent","m",545.257303,"j","j","right","(862, 362)",23,1,524.067968229119,-2.11966188695275," 1158.51",99,4,1,1
"39",40,"right","SHINEd_Shark_GreatWhite.jpg","incongruent","n",524.527884,"f","f","left","(862, 362)",287,1,503.616360817569,-22.5712692985022,"  694.34",341,4,1,1
"39",41,"right","SHINEd_MousepadAndMouse.jpg","congruent","m",458.334875,"j","j","right","(862, 362)",99,1,437.70116340602,-88.4864667100516," 1062.65",310,4,1,1
"39",42,"right","SHINEd_Potato.jpg","incongruent","n",559.040362,"f","f","left","(862, 362)",423,1,538.68446199447,12.4968318783988,"  933.82",108,4,1,1
"39",43,"right","SHINEd_FireHydrant.jpg","congruent","m",467.912317,"j","j","right","(862, 362)",167,1,447.834228582921,-78.3534015331506,"  879.40",276,4,1,1
"39",44,"right","SHINEd_Stingray.jpg","incongruent","n",600.430425,"f","f","left","(862, 362)",315,1,580.630148171371,54.4425180553,"  770.81",342,4,1,1
"39",45,"left","SHINEd_DrainPlug.jpg","incongruent","m",492.692957,"j","j","right","(148, 362)",140,1,473.170491759822,-53.0171383562495," 1375.11",162,3,1,1
"39",46,"left","SHINEd_Banana.jpg","congruent","n",528.313964,"f","f","left","(148, 362)",376,1,509.069310348272,-17.1183197677989," 1813.06",313,4,1,1
"39",47,"right","SHINEd_Sand.jpg","incongruent","n",817.624619,"j","f","left","(862, 362)",279,0,798.657776936723,272.470146820652,"  838.94",268,4,1,1
"39",48,"left","SHINEd_Bolt.jpg","incongruent","m",574.230519,"j","j","right","(148, 362)",32,1,555.541488525173,29.3538584091021,"  927.54",325,3,0,0
"39",49,"left","SHINEd_raspberry.jpg","congruent","n",450.399619,"f","f","left","(148, 362)",456,1,431.988400113624,-94.1992300024474,"  703.70",278,4,1,1
"39",50,"right","SHINEd_aloe.jpg","incongruent","n",615.117139,"f","f","left","(862, 362)",299,1,596.983731702075,70.7961015860031," 1046.73",279,4,1,1
"39",51,"left","SHINEd_alpaca_fo.jpg","congruent","n",457.843095,"f","f","left","(148, 362)",400,1,439.987499290525,-86.2001308255463," 1149.74",321,4,1,1
"39",52,"left","SHINEd_blackberry.jpg","congruent","n",357.743093,"f","f","left","(148, 362)",280,1,340.165308878976,-186.022321237096,"  855.88",219,4,1,1
"39",53,"left","SHINEd_EspressoMachine.jpg","incongruent","m",434.47308,"j","j","right","(148, 362)",156,1,417.173107467426,-109.014522648645," 1430.85",371,3,0,0
"39",54,"left","SHINEd_housefly.jpg","congruent","n",400.593655,"f","f","left","(148, 362)",420,1,383.571494055877,-142.616136060195,"  686.64",412,4,1,1
"39",55,"right","SHINEd_bat.jpg","incongruent","n",586.766734,"f","f","left","(862, 362)",403,1,570.022384644327,43.8347545282559,"  646.85",156,4,1,1
"39",56,"right","SHINEd_sanddollar.jpg","incongruent","n",NA,"miss","f","left","(862, 362)",295,0,NA,NA," 1102.68",437,4,1,1
"39",57,"left","SHINEd_Clam.jpg","congruent","n",562.701555,"f","f","left","(148, 362)",340,1,546.512828821228,20.3251987051569,"  758.33",297,4,1,1
"39",58,"left","SHINEd_IroningBoard.jpg","incongruent","m",511.531699,"j","j","right","(148, 362)",52,1,495.620784409679,-30.5668457063925,"  967.02",317,4,1,1
"39",59,"left","SHINEd_blueberries.jpg","congruent","n",394.854772,"f","f","left","(148, 362)",232,1,379.221668998129,-146.965961117942," 1597.97",350,2,1,NA
"39",60,"right","SHINEd_sunflowers.jpg","incongruent","n",592.339318,"f","f","left","(862, 362)",395,1,576.98402658658,50.7963964705086,"  720.31",367,4,1,1
"39",61,"right","SHINEd_Seashell_RoseMurex.jpg","incongruent","n",580.04992,"f","f","left","(862, 362)",327,1,564.972440175031,38.7848100589591,"  781.94",137,2,1,NA
"39",62,"right","SHINEd_whistle.jpg","congruent","m",593.222356,"j","j","right","(862, 362)",79,1,578.422687763481,52.2350576474096," 1796.50",101,2,0,0
"39",63,"right","SHINEd_penguin.jpg","incongruent","n",494.831731,"f","f","left","(862, 362)",307,1,480.309874351932,-45.8777557641399,"  683.09",145,4,1,1
"39",64,"right","SHINEd_Barbecue_Gas.jpg","congruent","m",484.096737,"j","j","right","(862, 362)",159,1,469.852691940382,-56.3349381756893,"  919.67",332,2,0,0
"39",65,"left","SHINEd_Clothespin_Red.jpg","incongruent","m",607.333653,"j","j","right","(148, 362)",60,1,593.367419528833,67.1797894127612," 1221.79",347,4,1,1
"39",66,"left","SHINEd_Bird_CanadianGoose.jpg","congruent","n",434.117542,"f","f","left","(148, 362)",388,1,420.429120117283,-105.758509998788," 2173.48",229,3,0,0
"39",67,"left","SHINEd_Boombox.jpg","incongruent","m",535.999972,"j","j","right","(148, 362)",92,1,522.589361705734,-3.59826841033776," 1755.81",449,4,1,1
"39",68,"left","SHINEd_Pitcher.jpg","incongruent","m",420.577682,"j","j","right","(148, 362)",56,1,407.444883294184,-118.742746821887,"  926.17",47,2,0,0
"39",69,"left","SHINEd_anteater.jpg","congruent","n",600.719429,"f","f","left","(148, 362)",368,1,587.864441882635,61.6768117665633," 1870.10",398,2,0,0
"39",70,"left","SHINEd_Earrings_Dangling.jpg","incongruent","m",556.395092,"j","j","right","(148, 362)",196,1,543.817916471085,17.6302863550139," 1614.48",209,3,1,1
"39",71,"left","SHINEd_Plum.jpg","congruent","n",576.349281,"f","f","left","(148, 362)",244,1,564.049917059536,37.8622869434644," 1639.90",231,4,1,1
"39",72,"left","SHINEd_PencilCase.jpg","incongruent","m",556.382364,"j","j","right","(148, 362)",68,1,544.360811647986,18.173181531915," 1403.30",441,3,1,1
"39",73,"left","SHINEd_dove.jpg","congruent","n",474.005051,"f","f","left","(148, 362)",308,1,462.261310236437,-63.9263198796345," 1094.64",73,3,0,0
"39",74,"right","SHINEd_puffer-fish.jpg","incongruent","n",686.283647,"f","f","left","(862, 362)",339,1,674.817717824887,148.630087708816,"  712.19",440,4,1,1
"39",75,"left","SHINEd_Lobster.jpg","congruent","n",642.298654,"f","f","left","(148, 362)",288,1,631.110536413338,104.922906297267,"  767.42",326,4,1,1
"39",76,"left","SHINEd_Squid_Pink.jpg","congruent","n",495.324975,"f","f","left","(148, 362)",336,1,484.414669001789,-41.7729611142829," 1647.42",104,3,1,1
"39",77,"left","SHINEd_Tie.jpg","incongruent","m",451.478728,"j","j","right","(148, 362)",192,1,440.846233590239,-85.3413965258324,"  968.31",28,4,1,1
"39",78,"right","SHINEd_MalletJudge.jpg","congruent","m",567.047178,"j","j","right","(862, 362)",35,1,556.69249517869,30.5048650626182,"  727.62",361,1,0,0
"39",79,"left","SHINEd_SpinningWheel.jpg","incongruent","m",418.008195,"j","j","right","(148, 362)",124,1,407.93132376714,-118.256306348931,"  933.03",288,4,1,1
"39",80,"left","SHINEd_groundhog.jpg","congruent","n",462.752281,"f","f","left","(148, 362)",404,1,452.953221355591,-73.2344087604807,"  855.55",149,4,1,1
"39",81,"right","SHINEd_turkey.jpg","incongruent","n",489.857062,"f","f","left","(862, 362)",391,1,480.335813944041,-45.8518161720302,"  982.79",366,4,1,1
"39",82,"left","SHINEd_Boar.jpg","congruent","n",477.755921,"f","f","left","(148, 362)",264,1,468.512484532492,-57.6751455835797," 1095.25",383,3,0,0
"39",83,"right","SHINEd_tooth.jpg","incongruent","n",706.609182,"j","f","left","(862, 362)",363,0,697.643557120942,171.455927004871,"  814.01",387,4,1,1
"39",84,"left","SHINEd_rhino.jpg","congruent","n",535.053623,"f","f","left","(148, 362)",352,1,526.365809709393,0.178179593321422,"  790.21",260,4,1,1
"39",85,"left","SHINEd_Guitar_Acoustic.jpg","incongruent","m",521.860106,"j","j","right","(148, 362)",12,1,513.450104297843,-12.7375258182281,"  968.16",356,2,0,0
"39",86,"left","SHINEd_Pig.jpg","congruent","n",527.329585,"f","f","left","(148, 362)",424,1,519.197394886294,-6.99023522977757,"  822.13",324,2,1,NA
"39",87,"left","SHINEd_Lion.jpg","congruent","n",443.068319,"f","f","left","(148, 362)",316,1,435.213940474744,-90.973689641327,"  879.94",150,4,1,1
"39",88,"right","SHINEd_tentacle.jpg","incongruent","n",520.230116,"f","f","left","(862, 362)",247,1,512.653549063195,-13.5340810528765,"  878.67",40,4,1,1
"39",89,"left","SHINEd_lorises.jpg","congruent","n",611.910613,"f","f","left","(148, 362)",428,1,604.611857651646,78.4242275355741," 1783.28",63,3,1,1
"39",90,"right","SHINEd_Eggplant.jpg","incongruent","n",703.708605,"f","f","left","(862, 362)",267,1,696.687661240096,170.500031124025,"  664.43",135,4,1,1
"39",91,"right","SHINEd_Owl.jpg","incongruent","n",517.007188,"f","f","left","(862, 362)",407,1,510.264055828547,-15.9235742875248,"  782.76",455,4,1,1
"39",92,"right","SHINEd_FloppyDisk.jpg","congruent","m",545.571015,"j","j","right","(862, 362)",147,1,539.105694416997,12.9180643009257," 1213.33",338,4,1,1
"39",93,"left","SHINEd_Outhouse.jpg","incongruent","m",458.833368,"j","j","right","(148, 362)",164,1,452.645859005448,-73.5417711106238," 3768.70",95,3,1,1
"39",94,"right","SHINEd_Belt.jpg","congruent","m",704.163761,"j","j","right","(862, 362)",195,1,698.254063593898,172.066433477827,"  728.12",208,4,1,1
"39",95,"right","SHINEd_edamame.jpg","incongruent","n",547.110814,"f","f","left","(862, 362)",303,1,541.478928182349,15.2912980662773,"  999.26",353,4,1,1
"39",96,"right","SHINEd_Fish_Swordfish.jpg","incongruent","n",567.345668,"f","f","left","(862, 362)",331,1,561.991593770799,35.8039636547279," 1156.96",346,4,1,1
"39",97,"right","SHINEd_Binoculars.jpg","congruent","m",497.500488,"j","j","right","(862, 362)",199,1,492.42422535925,-33.7634047568216,"  927.83",15,4,1,1
"39",98,"right","SHINEd_Hedgehog.jpg","incongruent","n",519.16097,"f","f","left","(862, 362)",243,1,514.3625189477,-11.8251111683711,"  714.58",373,4,1,1
"39",99,"left","SHINEd_TigerWhite.jpg","congruent","n",515.044652,"f","f","left","(148, 362)",440,1,510.524012536151,-15.6636175799205," 1552.25",3,4,1,1
"39",100,"right","SHINEd_white sesame.jpg","incongruent","n",727.565,"j","f","left","(862, 362)",371,0,723.322172124601,197.13454200853,"  999.08",78,4,1,1
"39",101,"left","SHINEd_GasStation.jpg","incongruent","m",660.418722,"j","j","right","(148, 362)",168,1,656.453705713052,130.266075596981," 1141.97",118,2,0,0
"39",102,"left","SHINEd_Celery.jpg","congruent","n",529.828473,"f","f","left","(148, 362)",272,1,526.141268301503,-0.0463618145689054,"  966.99",25,4,1,1
"39",103,"right","SHINEd_pine-cone-.jpg","incongruent","n",531.633089,"f","f","left","(862, 362)",399,1,528.223695889953,2.03606577388164,"  823.42",368,4,1,1
"39",104,"left","SHINEd_Pepper_Green.jpg","congruent","n",440.107452,"f","f","left","(148, 362)",372,1,436.975870478404,-89.2117596376678," 1158.26",91,4,1,1
"39",105,"right","SHINEd_KiddiePool.jpg","congruent","m",565.387233,"j","j","right","(862, 362)",87,1,562.533463066854,36.3458329507827," 1062.28",75,4,1,1
"39",106,"left","SHINEd_Fridge.jpg","incongruent","m",546.33462,"j","j","right","(148, 362)",44,1,543.758661655305,17.5710315392332," 1109.88",19,4,1,1
"39",107,"left","SHINEd_gazelle.jpg","congruent","n",484.654319,"f","f","left","(148, 362)",268,1,482.356172243755,-43.8314578723163," 1078.28",234,4,1,1
"39",108,"left","SHINEd_LifeJacket_BlueYellow.jpg","incongruent","m",627.010554,"j","j","right","(148, 362)",16,1,624.990218832206,98.8025887161343,"  823.11",251,4,1,1
"39",109,"right","SHINEd_KitchenCloth.jpg","congruent","m",670.270886,"j","j","right","(862, 362)",143,1,668.528362420656,142.340732304585,"  773.71",450,4,1,1
"39",110,"left","SHINEd_Bottle_Bleach.jpg","incongruent","m",705.238176,"j","j","right","(148, 362)",212,1,703.773464009107,177.585833893035,"  807.03",217,4,1,1
"39",111,"left","SHINEd_Squash_Butternut.jpg","congruent","n",588.296372,"f","f","left","(148, 362)",444,1,587.109471597557,60.9218414814859,"  725.30",336,4,1,1
"39",112,"right","SHINEd_Cauliflower.jpg","incongruent","n",513.539737,"f","f","left","(862, 362)",291,1,512.630648186008,-13.5569819300636,"  663.09",385,4,1,1
"39",113,"right","SHINEd_firetruck.jpg","congruent","m",467.861458,"j","j","right","(862, 362)",179,1,467.230180774458,-58.957449341613,"  989.18",386,2,0,0
"39",114,"right","SHINEd_Tractor_Orange.jpg","congruent","m",409.44675,"j","j","right","(862, 362)",175,1,409.093284362909,-117.094345753162,"  744.61",274,3,0,0
"39",115,"left","SHINEd_Cassette_Audio.jpg","incongruent","m",460.276515,"j","j","right","(148, 362)",148,1,460.200860951359,-65.9867691647119,"  760.16",49,4,1,1
"39",116,"left","SHINEd_Cougar.jpg","congruent","n",537.445509,"f","f","left","(148, 362)",276,1,537.64766653981,11.4600364237386,"  830.02",444,4,1,1
"39",117,"left","SHINEd_Glasses_Reading.jpg","incongruent","m",564.016559,"j","j","right","(148, 362)",200,1,564.496528128261,38.3088980121891," 1127.99",134,2,0,0
"39",118,"left","SHINEd_Pear_Yellow.jpg","congruent","n",616.830815,"f","f","left","(148, 362)",416,1,617.588595716711,91.4009656006397,"  589.42",130,4,1,1
"39",119,"right","SHINEd_tamarinds.jpg","incongruent","n",589.739392,"f","f","left","(862, 362)",451,1,590.774984305162,64.5873541890901,"  944.34",250,4,1,1
"39",120,"right","SHINEd_Cable_AudioSplitter.jpg","congruent","m",456.059621,"j","j","right","(862, 362)",91,1,457.373024893612,-68.8146052224593," 1024.19",53,4,1,1
"39",121,"left","SHINEd_Shampoo.jpg","incongruent","m",554.681953,"j","j","right","(148, 362)",120,1,556.273168482063,30.0855383659913,"  783.14",429,4,1,1
"39",122,"left","SHINEd_chick hatch.jpg","congruent","n",661.292716,"f","f","left","(148, 362)",384,1,663.161743070513,136.974112954442,"  958.34",296,4,1,1
"39",123,"left","SHINEd_Boots_KneeHigh.jpg","incongruent","m",514.538474,"j","j","right","(148, 362)",152,1,516.685312658964,-9.50231745710772," 1120.05",115,2,0,0
"39",124,"left","SHINEd_Key_Car.jpg","incongruent","m",485.609085,"j","j","right","(148, 362)",176,1,488.033735247414,-38.1538948686571," 2065.23",52,2,1,NA
"39",125,"right","SHINEd_Dress_Blue.jpg","congruent","m",585.759059,"j","j","right","(862, 362)",3,1,588.461520835865,62.2738907197934," 1111.16",204,4,1,1
"39",126,"left","SHINEd_seatAirplane.jpg","incongruent","m",581.87043,"j","j","right","(148, 362)",172,1,584.850703424315,58.663073308244," 1326.36",302,2,0,0
"39",127,"right","SHINEd_DryRack_Dishes.jpg","congruent","m",464.197945,"j","j","right","(862, 362)",135,1,467.456030012766,-58.7316001033055," 1423.10",12,3,1,1
"39",128,"right","SHINEd_Nuts_Peanuts.jpg","incongruent","n",429.367199,"f","f","left","(862, 362)",235,1,432.903095601216,-93.284534514855,"  630.08",26,4,1,1
"39",129,"left","SHINEd_fig.jpg","congruent","n",432.621682,"f","f","left","(148, 362)",412,1,436.435390189667,-89.7522399264044,"  718.22",351,4,1,1
"39",130,"left","SHINEd_Exercise_Bike.jpg","incongruent","m",447.137971,"j","j","right","(148, 362)",24,1,451.229490778118,-74.9581393379539," 1630.55",89,2,1,NA
"39",131,"left","SHINEd_Lettuce_GreenLeaf.jpg","congruent","n",482.064488,"f","f","left","(148, 362)",248,1,486.433819366568,-39.7538107495034,"  766.73",305,4,1,1
"39",132,"right","SHINEd_Stapler_Regular.jpg","congruent","m",535.683046,"j","j","right","(862, 362)",43,1,540.330188955019,14.1425588389471," 2958.13",125,4,1,1
"39",133,"left","SHINEd_Bag_Camera.jpg","incongruent","m",508.351207,"j","j","right","(148, 362)",216,1,513.276161543469,-12.9114685726023,"  736.12",191,4,1,1
"39",134,"right","SHINEd_Bandage_Adhesive.jpg","congruent","m",447.929101,"j","j","right","(862, 362)",107,1,453.13186713192,-73.0557629841518," 1073.94",166,4,1,1
"39",135,"left","SHINEd_CompassCardinal.jpg","incongruent","m",469.246604,"j","j","right","(148, 362)",40,1,474.72718172037,-51.4604483957012," 1221.70",421,4,1,1
"39",136,"right","SHINEd_Swan.jpg","incongruent","n",372.111666,"f","f","left","(862, 362)",443,1,377.870055308821,-148.317574807251,"  686.22",121,4,1,1
"39",137,"right","SHINEd_Cage_Bird.jpg","congruent","m",493.216829,"j","j","right","(862, 362)",123,1,499.253029897271,-26.9346002188001," 1071.13",23,4,1,1
"39",138,"left","SHINEd_bee.jpg","congruent","n",537.096792,"f","f","left","(148, 362)",380,1,543.410804485722,17.2231743696504,"  845.72",132,4,1,1
"39",139,"left","SHINEd_HedgeShears.jpg","incongruent","m",557.157814,"j","j","right","(148, 362)",28,1,563.749638074172,37.5620079581009,"  873.96",407,2,0,0
"39",140,"left","SHINEd_Buffalo.jpg","congruent","n",448.096579,"f","f","left","(148, 362)",432,1,454.966214662623,-71.2214154534485," 1029.28",100,3,0,0
"39",141,"right","SHINEd_elbow.jpg","incongruent","n",501.186772,"j","f","left","(862, 362)",263,0,508.334219251073,-17.853410864998," 1200.52",138,4,1,1
"39",142,"left","SHINEd_Cow.jpg","congruent","n",519.041641,"f","f","left","(148, 362)",320,1,526.466899839524,0.279269723452549," 1029.31",357,3,1,1
"39",143,"right","SHINEd_Peach.jpg","incongruent","n",612.578946,"f","f","left","(862, 362)",323,1,620.282016427974,94.094386311903," 1103.05",401,4,1,1
"39",144,"right","SHINEd_Bed_Hospital.jpg","congruent","m",449.324677,"j","j","right","(862, 362)",207,1,457.305559016425,-68.8820710996464," 1047.58",435,3,1,1
"39",145,"right","SHINEd_goldfish.jpg","incongruent","n",517.778403,"f","f","left","(862, 362)",275,1,526.037096604876,-0.150533511195842," 1445.31",303,3,0,0
"39",146,"right","SHINEd_Crab.jpg","incongruent","n",474.292644,"f","f","left","(862, 362)",259,1,482.829149193326,-43.3584809227453,"  832.63",154,4,1,1
"39",147,"right","SHINEd_CapGraduation.jpg","congruent","m",493.44208,"j","j","right","(862, 362)",187,1,502.256396781777,-23.9312333342948,"  988.61",372,4,1,1
"39",148,"right","SHINEd_mapleleaf.jpg","incongruent","n",416.892504,"j","f","left","(862, 362)",335,0,425.984632370227,-100.202997745844," 1925.91",247,2,0,0
"39",149,"left","SHINEd_papaya.jpg","congruent","n",500.815739,"f","f","left","(148, 362)",292,1,510.185678958678,-16.0019511573937,"  536.84",218,4,1,1
"39",150,"left","SHINEd_Scorpion.jpg","congruent","n",457.662551,"f","f","left","(148, 362)",396,1,467.310302547128,-58.8773275689432,"  974.62",227,4,1,1
"39",151,"left","SHINEd_tapir copy.jpg","congruent","n",365.765951,"f","f","left","(148, 362)",408,1,375.691514135579,-150.496115980493,"  613.78",374,4,1,1
"39",152,"right","SHINEd_lime.jpg","incongruent","n",528.096598,"f","f","left","(862, 362)",439,1,538.299972724029,12.1123426079579," 2135.19",202,4,1,1
"39",153,"left","SHINEd_Lighter_Yellow.jpg","incongruent","m",445.813022,"j","j","right","(148, 362)",104,1,456.29420831248,-69.8934218035916," 1581.63",402,2,1,NA
"39",154,"right","SHINEd_ashtray.jpg","congruent","m",504.85842,"j","j","right","(862, 362)",227,1,515.61741790093,-10.570212215141," 1013.36",236,1,0,0
"39",155,"left","SHINEd_Kangaroo.jpg","congruent","n",388.323627,"f","f","left","(148, 362)",312,1,399.360436489381,-126.827193626691,"  863.35",144,4,1,1
"39",156,"right","SHINEd_Oars.jpg","congruent","m",351.810008,"j","j","right","(862, 362)",19,1,363.124629077831,-163.06300103824," 1432.42",21,2,0,0
"39",157,"left","SHINEd_Hat_Explorer.jpg","incongruent","m",467.766658,"j","j","right","(148, 362)",188,1,479.359090666282,-46.8285394497894," 1759.47",448,4,1,1
"39",158,"left","SHINEd_CinderBlock.jpg","incongruent","m",543.243779,"j","j","right","(148, 362)",108,1,555.114023254733,28.9263931386611,"  631.13",45,4,1,1
"39",159,"right","SHINEd_birdie.jpg","congruent","m",460.886183,"j","j","right","(862, 362)",131,1,473.034238843183,-53.1533912728883," 1110.07",33,3,1,1
"39",160,"right","SHINEd_Car_Sedan.jpg","congruent","m",353.190818,"j","j","right","(862, 362)",183,1,365.616685431634,-160.570944684438," 1606.13",131,2,0,0
"39",161,"left","SHINEd_Fan_Ceiling.jpg","incongruent","m",556.944477,"j","j","right","(148, 362)",48,1,569.648156020084,43.4605259040127," 2742.26",35,2,0,0
"39",162,"left","SHINEd_Camel_Bactrian.jpg","congruent","n",440.283696,"f","f","left","(148, 362)",344,1,453.265186608535,-72.9224435075367," 1551.30",94,4,1,1
"39",163,"left","SHINEd_Golf_Club.jpg","incongruent","m",408.31556,"j","j","right","(148, 362)",132,1,421.574862196985,-104.612767919086," 1046.33",394,2,1,NA
"39",164,"left","SHINEd_Pepper_Chili.jpg","congruent","n",571.562752,"f","f","left","(148, 362)",240,1,585.099865785436,58.9122356693644," 1000.50",222,4,1,1
"39",165,"right","SHINEd_Coral.jpg","incongruent","n",671.904755,"f","f","left","(862, 362)",455,1,685.719680373886,159.532050257815,"  965.85",417,4,1,1
"39",166,"left","SHINEd_FireExtinguisher.jpg","incongruent","m",515.337168,"j","j","right","(148, 362)",112,1,529.429904962337,3.24227484626542," 1272.68",4,3,1,1
"39",167,"right","SHINEd_Organ.jpg","congruent","m",561.832205,"j","j","right","(862, 362)",7,1,576.202753550787,50.015123434716,"  994.31",392,3,0,0
"39",168,"left","SHINEd_Garbage_GreenBin.jpg","incongruent","m",477.56914,"j","j","right","(148, 362)",144,1,492.217500139238,-33.9701299768335,"  975.45",72,4,1,1
"39",169,"right","SHINEd_Harp.jpg","congruent","m",449.429485,"j","j","right","(862, 362)",11,1,464.355656727688,-61.831973388383," 1117.08",42,2,1,NA
"39",170,"right","SHINEd_Stroller.jpg","congruent","m",477.503172,"j","j","right","(862, 362)",55,1,492.707155316139,-33.4804747999325," 1941.88",393,3,1,1
"39",171,"left","SHINEd_Cucumber.jpg","congruent","n",441.787154,"f","f","left","(148, 362)",364,1,457.268948904589,-68.9186812114819,"  743.96",262,4,1,1
"39",172,"left","SHINEd_BookShelf.jpg","incongruent","m",429.84305,"j","j","right","(148, 362)",204,1,445.60265649304,-80.5849736230314,"  775.20",244,3,0,0
"39",173,"left","SHINEd_Hand.jpg","congruent","n",553.821289,"f","f","left","(148, 362)",284,1,569.858707081491,43.6710769654191," 1799.37",369,2,1,NA
"39",174,"right","SHINEd_zebra.jpg","incongruent","n",494.331654,"f","f","left","(862, 362)",447,1,510.646883669941,-15.5407464461303,"  853.46",419,4,1,1
"39",175,"left","SHINEd_sloth.jpg","congruent","n",698.394956,"f","f","left","(148, 362)",304,1,714.987997258392,188.80036714232,"  766.35",266,4,1,1
"39",176,"right","SHINEd_Cup_Bathroom.jpg","congruent","m",462.940949,"j","j","right","(862, 362)",51,1,479.811801846842,-46.3758282692293," 1198.62",66,1,0,0
"39",177,"right","SHINEd_Puffin.jpg","incongruent","n",448.174072,"f","f","left","(862, 362)",231,1,465.322736435293,-60.8648936807787," 1414.39",174,4,1,1
"39",178,"left","SHINEd_CoffeeBeans.jpg","congruent","n",613.16179,"f","f","left","(148, 362)",332,1,630.588266023743,104.400635907672,"  727.87",157,4,1,1
"39",179,"right","SHINEd_clementine.jpg","incongruent","n",585.490568,"f","f","left","(862, 362)",359,1,603.194855612194,77.0072254961224,"  815.79",139,4,1,1
"39",180,"right","SHINEd_Notepad.jpg","congruent","m",549.15907,"j","j","right","(862, 362)",71,1,567.141169200644,40.953539084573,"  949.54",378,2,0,0
"39",181,"right","SHINEd_Ship_Model.jpg","congruent","m",401.818657,"j","j","right","(862, 362)",83,1,420.078567789095,-106.109062326977,"  735.28",261,4,1,1
"39",182,"right","SHINEd_organutan.jpg","incongruent","n",500.808649,"f","f","left","(862, 362)",343,1,519.346371377545,-6.84125873852602," 1629.64",316,3,0,0
"39",183,"right","SHINEd_Box_Staples.jpg","congruent","m",448.469234,"j","j","right","(862, 362)",67,1,467.284767965996,-58.9028621500755," 2566.41",304,4,1,1
"39",184,"left","SHINEd_Blackboard.jpg","incongruent","m",462.881788,"j","j","right","(148, 362)",72,1,481.975133554446,-44.212496561625," 2782.83",397,3,1,1
"39",185,"left","SHINEd_ant.jpg","congruent","n",452.013354,"f","f","left","(148, 362)",328,1,471.384511142897,-54.8031189731744," 1364.53",143,3,1,1
"39",186,"left","SHINEd_Box_Package.jpg","incongruent","m",470.745562,"j","j","right","(148, 362)",220,1,490.394530731348,-35.7930993847239,"  822.47",254,4,1,1
"39",187,"right","SHINEd_Dresser.jpg","congruent","m",411.264131,"j","j","right","(862, 362)",203,1,431.190911319798,-94.9967187962733," 1302.70",128,2,0,0
"39",188,"left","SHINEd_Cologne.jpg","incongruent","m",406.839415,"j","j","right","(148, 362)",116,1,427.044006908249,-99.1436232078228," 1367.02",245,4,1,1
"39",189,"right","SHINEd_tree.jpg","incongruent","n",674.773344,"f","f","left","(862, 362)",375,1,695.255747496699,169.068117380628,"  806.78",327,4,1,1
"39",190,"right","SHINEd_paddle ball.jpg","congruent","m",583.335111,"j","j","right","(862, 362)",27,1,604.09532608515,77.9076959690783," 1599.95",117,4,1,1
"39",191,"right","SHINEd_PaperCutter.jpg","congruent","m",370.496734,"j","j","right","(862, 362)",31,1,391.5347606736,-134.652869442471,"  808.10",267,4,1,1
"39",192,"left","SHINEd_ornament.jpg","incongruent","m",592.643392,"j","j","right","(148, 362)",224,1,613.959230262051,87.7716001459793,"  966.74",116,4,1,1
"39",193,"left","SHINEd_Lock_Combination.jpg","incongruent","m",405.076075,"j","j","right","(148, 362)",64,1,426.669724850501,-99.5179052655701,"  852.54",48,4,1,1
"39",194,"left","SHINEd_beetle.jpg","congruent","n",369.240935,"f","f","left","(148, 362)",356,1,391.112396438952,-135.07523367712,"  888.92",409,1,0,0
"39",195,"left","SHINEd_CanOpener.jpg","incongruent","m",486.668039,"j","j","right","(148, 362)",160,1,508.817312027402,-17.370318088669," 1166.84",445,3,0,0
"39",196,"left","SHINEd_SpiderWeb.jpg","congruent","n",595.917732,"f","f","left","(148, 362)",348,1,618.344816615853,92.1571864997815,"  662.85",80,4,1,1
"39",197,"right","SHINEd_Bowtie.jpg","congruent","m",543.340079,"j","j","right","(862, 362)",191,1,566.044975204303,39.857345088232," 2510.83",171,3,1,1
"39",198,"right","SHINEd_WateringCan_PlasticDarkGreen.jpg","congruent","m",388.916631,"j","j","right","(862, 362)",215,1,411.899338792754,-114.288291323317,"  582.40",50,4,1,1
"39",199,"right","SHINEd_bear.jpg","incongruent","n",377.962261,"f","f","left","(862, 362)",271,1,401.222780381205,-124.964849734867,"  815.88",329,4,1,1
"39",200,"right","SHINEd_Light_Siren.jpg","congruent","m",415.49687,"j","j","right","(862, 362)",95,1,439.035200969655,-87.1524291464164," 1280.44",67,4,1,1
"39",201,"right","SHINEd_Candleholder_LampShaped.jpg","congruent","m",363.953799,"j","j","right","(862, 362)",111,1,387.769941558106,-138.417688557966," 1313.21",207,4,1,1
"39",202,"right","SHINEd_beluga.jpg","incongruent","n",415.346953,"f","f","left","(862, 362)",431,1,439.440907146556,-86.7467229695153,"  920.37",82,4,1,1
"39",203,"right","SHINEd_Crayon_Green.jpg","congruent","m",409.878067,"j","j","right","(862, 362)",63,1,434.249832735007,-91.9377973810648,"  775.34",355,4,1,1
"39",204,"right","SHINEd_Microwave.jpg","congruent","m",366.823337,"j","j","right","(862, 362)",155,1,391.472914323457,-134.714715792614," 1150.83",298,3,0,0
"39",205,"right","SHINEd_pistachios-.jpg","incongruent","n",473.477379,"f","f","left","(862, 362)",411,1,498.404767911908,-27.7828622041637,"  663.11",238,4,1,1
"39",206,"left","SHINEd_Hammer.jpg","incongruent","m",543.280953,"j","j","right","(148, 362)",36,1,568.486153500358,42.2985233842868," 2614.16",382,4,1,1
"39",207,"left","SHINEd_Sheep.jpg","congruent","n",425.800406,"f","f","left","(148, 362)",300,1,451.283418088809,-74.9042120272626,"  597.59",299,4,1,1
"39",208,"left","SHINEd_DoubleBass.jpg","incongruent","m",463.187472,"j","j","right","(148, 362)",8,1,488.948295677259,-37.2393344388121," 1470.50",418,2,1,NA
"39",209,"left","SHINEd_Ball_Football.jpg","incongruent","m",587.217602,"j","j","right","(148, 362)",128,1,613.25623726571,87.0686071496385,"  981.40",44,4,1,1
"39",210,"right","SHINEd_LetterMail.jpg","congruent","m",575.057671,"j","j","right","(862, 362)",75,1,601.37411785416,75.186487738089,"  752.60",190,4,1,1
"39",211,"left","SHINEd_eggs.jpg","congruent","n",810.240301,"f","f","left","(148, 362)",296,1,836.834559442611,310.64692932654," 2405.53",358,3,0,0
"39",212,"right","SHINEd_almond.jpg","incongruent","n",445.696166,"f","f","left","(862, 362)",311,1,472.568236031062,-53.6193940850099," 1125.81",424,4,1,1
"39",213,"right","SHINEd_Seal_animal.jpg","incongruent","n",450.863185,"f","f","left","(862, 362)",379,1,478.013066619512,-48.1745634965594,"  807.68",319,4,1,1
"39",214,"left","SHINEd_Leaf_Green.jpg","congruent","n",503.59236,"f","f","left","(148, 362)",448,1,531.020053207963,4.83242309189114,"  669.03",344,2,1,NA
"39",215,"right","SHINEd_Hippopotamus.jpg","incongruent","n",627.306112,"f","f","left","(862, 362)",367,1,655.011616796413,128.823986680342,"  581.24",438,4,1,1
"39",216,"left","SHINEd_Button.jpg","incongruent","m",NA,"miss","j","right","(148, 362)",4,0,NA,NA," 1006.99",87,4,1,1
"39",217,"left","SHINEd_bullrush.jpg","congruent","n",644.091471,"j","f","left","(148, 362)",324,0,672.352598973314,146.164968857243,"  831.33",188,4,1,1
"39",218,"right","SHINEd_Panda.jpg","incongruent","n",544.433259,"f","f","left","(862, 362)",251,1,572.972198561765,46.7845684456933,"  742.27",237,4,1,1
"39",219,"right","SHINEd_Caribou.jpg","incongruent","n",429.676141,"f","f","left","(862, 362)",435,1,458.492892150215,-67.6947379658562," 2487.47",127,3,0,0
"39",220,"right","SHINEd_SpongeScrubbing.jpg","congruent","m",418.776907,"j","j","right","(862, 362)",139,1,447.871469738666,-78.3161603774056," 1318.15",58,4,1,1
"39",221,"right","SHINEd_Shoes_Pumps.jpg","congruent","m",799.013911,"j","j","right","(862, 362)",151,1,828.386285327116,302.198655211045," 1086.60",62,4,1,1
"39",222,"left","SHINEd_Ginger.jpg","congruent","n",701.265638,"f","f","left","(148, 362)",236,1,730.915823915567,204.728193799495,"  885.85",119,4,1,1
"39",223,"right","SHINEd_CDstack.jpg","congruent","m",687.092921,"j","j","right","(862, 362)",15,1,717.020918504017,190.833288387946," 1614.97",129,4,1,1
"39",224,"left","SHINEd_RibbonSpool.jpg","incongruent","m",500.388698,"j","j","right","(148, 362)",80,1,530.594507092468,4.40687697639649,"  727.64",270,4,1,1
"39",225,"right","SHINEd_alfalfa.jpg","incongruent","n",593.874555,"f","f","left","(862, 362)",283,1,624.358175680919,98.170545564847,"  759.43",146,4,1,1
"39",226,"right","SHINEd_Bat_Baseball.jpg","congruent","m",619.490737,"j","j","right","(862, 362)",127,1,650.252169269369,124.064539153298," 1232.33",9,4,1,1
"39",227,"right","SHINEd_alligator.jpg","incongruent","n",599.202455,"f","f","left","(862, 362)",355,1,630.24169885782,104.054068741748,"  822.21",216,4,1,1
"39",228,"left","SHINEd_Light_Traffic.jpg","incongruent","m",523.653943,"j","j","right","(148, 362)",180,1,554.97099844627,28.7833683301987," 1488.21",406,3,0,0
