"participant","trial_index","screenposition","stimulus","trialtype","classifyenc","rt","response","responsecorrect","responsecorrect_side","screenlocation","stimnum","acc","rtResidual","rtResidualC","rt_rec","trialno_rec","ratingConfidence","acc_rec","memoryHits.hc"
"3",1,"left","SHINEd_Helmet_Bicycle.jpg","incongruent","m",NA,"miss","j","right","(148, 362)",18,0,NA,NA," 1550.03",188,4,1,1
"3",2,"left","SHINEd_Tomato.jpg","congruent","n",708.451451,"f","f","left","(148, 362)",450,1,729.187625818483,38.3745822986806," 1023.60",339,4,1,1
"3",3,"right","SHINEd_Bottle_Beer.jpg","congruent","m",473.366156,"j","j","right","(862, 362)",213,1,493.91851884229,-196.894524677512,"  783.19",52,4,1,1
"3",4,"left","SHINEd_Briefcase_Leather.jpg","incongruent","m",597.892225,"j","j","right","(148, 362)",210,1,618.260775866104,-72.5522676536982," 1176.84",18,4,1,1
"3",5,"right","SHINEd_HotWaterBottle.jpg","congruent","m",651.281676,"j","j","right","(862, 362)",113,1,671.466414889917,-19.3466286298846,"  719.14",123,4,1,1
"3",6,"left","SHINEd_Swing_Child.jpg","incongruent","m",911.449202,"j","j","right","(148, 362)",166,1,931.450128913731,240.637085393929," 1152.88",278,4,1,1
"3",7,"right","SHINEd_Bells_Christmas.jpg","congruent","m",802.816671,"j","j","right","(862, 362)",225,1,822.633785937545,131.820742417743,"  967.16",156,4,1,1
"3",8,"left","SHINEd_Flashlight.jpg","incongruent","m",670.288425,"j","j","right","(148, 362)",98,1,689.921727961359,-0.891315558443326,"  589.95",222,4,1,1
"3",9,"left","SHINEd_Dragonfly.jpg","congruent","n",676.176617,"f","f","left","(148, 362)",346,1,695.626107985172,4.81306446537043," 1582.64",372,4,1,1
"3",10,"right","SHINEd_Lychee.jpg","incongruent","n",785.482389,"f","f","left","(862, 362)",321,1,804.748068008986,113.935024489184,"  638.59",367,4,1,1
"3",11,"right","SHINEd_Dice.jpg","congruent","m",NA,"miss","j","right","(862, 362)",89,0,NA,NA," 1190.34",118,3,1,1
"3",12,"right","SHINEd_WatermelonSlice.jpg","incongruent","n",NA,"miss","f","left","(862, 362)",325,0,NA,NA,"13718.71",256,3,1,1
"3",13,"right","SHINEd_Ruler_Wooden.jpg","congruent","m",622.608888,"j","j","right","(862, 362)",73,1,641.323131080428,-49.4899124393745,"  935.75",296,3,0,0
"3",14,"right","SHINEd_mizuna.jpg","incongruent","n",755.367002,"f","f","left","(862, 362)",429,1,773.897433104241,83.0843895844392,"  927.32",74,4,1,1
"3",15,"right","SHINEd_DeepFryer.jpg","congruent","m",583.053306,"j","j","right","(862, 362)",161,1,601.399925128055,-89.413118391747,"  584.32",116,2,0,0
"3",16,"left","SHINEd_DustPan.jpg","incongruent","m",836.749725,"j","j","right","(148, 362)",54,1,854.912532151869,164.099488632067," 1287.47",122,4,1,1
"3",17,"right","SHINEd_Makeup_Compact.jpg","congruent","m",728.754983,"j","j","right","(862, 362)",121,1,746.733978175683,55.9209346558805," 1072.45",171,4,1,1
"3",18,"right","SHINEd_okapi.jpg","incongruent","n",612.851161,"f","f","left","(862, 362)",425,1,630.646344199496,-60.1666993203057," 3091.21",25,4,1,1
"3",19,"left","SHINEd_TissueBox.jpg","incongruent","m",777.59866,"j","j","right","(148, 362)",50,1,795.21003122331,104.396987703508," 1328.61",35,4,1,1
"3",20,"right","SHINEd_Colander.jpg","congruent","m",NA,"miss","j","right","(862, 362)",41,0,NA,NA," 1015.75",336,3,1,1
"3",21,"left","SHINEd_Door_Green.jpg","incongruent","m",459.83044,"f","j","right","(148, 362)",106,0,477.074187270938,-213.738856248864," 1864.68",126,3,1,1
"3",22,"right","SHINEd_Quartz.jpg","incongruent","n",736.627515,"j","f","left","(862, 362)",401,0,753.687450294751,62.8744067749493,"  998.43",231,4,1,1
"3",23,"left","SHINEd_Goat.jpg","congruent","n",854.021129,"f","f","left","(148, 362)",322,1,870.897252318565,180.084208798763,"  606.97",233,4,1,1
"3",24,"right","SHINEd_Leaf_Clover.jpg","incongruent","n",656.642567,"f","f","left","(862, 362)",449,1,673.334878342379,-17.4781651774233,"11336.07",326,4,1,1
"3",25,"right","SHINEd_DentalFloss.jpg","congruent","m",NA,"miss","j","right","(862, 362)",117,0,NA,NA," 2293.33",202,3,0,0
"3",26,"right","SHINEd_Leek.jpg","incongruent","n",625.377256,"f","f","left","(862, 362)",357,1,641.701943390006,-49.1111001297957," 1812.46",215,4,1,1
"3",27,"left","SHINEd_Bird_Pelican.jpg","congruent","n",614.022027,"f","f","left","(148, 362)",402,1,630.16290241382,-60.650141105982," 1039.61",448,4,1,1
"3",28,"left","SHINEd_Butterfly.jpg","congruent","n",681.233286,"f","f","left","(148, 362)",318,1,697.190349437634,6.3773059178318," 1383.64",97,4,0,0
"3",29,"left","SHINEd_Bench_Black.jpg","incongruent","m",862.418392,"j","j","right","(148, 362)",206,1,878.191643461448,187.378599941646," 2000.32",412,1,1,NA
"3",30,"left","SHINEd_raccoon.jpg","congruent","n",578.708171,"f","f","left","(148, 362)",262,1,594.297610485261,-96.5154330345407," 1445.20",91,4,1,1
"3",31,"right","SHINEd_brusselsprouts.jpg","incongruent","n",551.31069,"j","f","left","(862, 362)",265,0,566.716317509075,-124.096726010727," 1005.17",405,4,0,0
"3",32,"right","SHINEd_pickle.jpg","incongruent","n",NA,"miss","f","left","(862, 362)",373,0,NA,NA," 1168.39",298,4,1,1
"3",33,"left","SHINEd_Lynx.jpg","congruent","n",488.963105,"f","f","left","(148, 362)",438,1,504.001108556703,-186.811934963099," 1528.95",119,3,1,1
"3",34,"left","SHINEd_Drill.jpg","incongruent","m",684.955082,"j","j","right","(148, 362)",30,1,699.809273580516,8.99623006071424," 1226.34",77,4,1,1
"3",35,"right","SHINEd_Magnifying_Glass.jpg","congruent","m",568.09064,"j","j","right","(862, 362)",105,1,582.76101960433,-108.052023915472," 1136.49",54,4,1,1
"3",36,"left","SHINEd_couch.jpg","incongruent","m",645.908148,"j","j","right","(148, 362)",202,1,660.394715628144,-30.4183278916582," 1103.24",403,4,1,1
"3",37,"left","SHINEd_eucalyptus.jpg","congruent","n",698.116599,"f","f","left","(148, 362)",282,1,712.419354651958,21.6063111321555," 1367.85",161,4,1,1
"3",38,"right","SHINEd_catcus.jpg","incongruent","n",726.279405,"f","f","left","(862, 362)",313,1,740.398348675771,49.5853051559693," 1093.04",191,4,1,1
"3",39,"left","SHINEd_treestump.jpg","congruent","n",483.175161,"f","f","left","(148, 362)",414,1,497.110292699585,-193.702750820217," 2023.37",138,4,1,1
"3",40,"left","SHINEd_discoball.jpg","incongruent","m",813.894671,"j","j","right","(148, 362)",226,1,827.645990723399,136.832947203597," 2277.39",357,4,1,1
"3",41,"left","SHINEd_antlers.jpg","congruent","n",666.710024,"f","f","left","(148, 362)",418,1,680.277531747213,-10.5355117725895," 1047.34",417,4,1,1
"3",42,"right","SHINEd_Gorilla.jpg","incongruent","n",663.055872,"f","f","left","(862, 362)",285,1,676.439567771026,-14.3734757487757," 1005.93",352,4,1,1
"3",43,"right","SHINEd_RecordPlayer.jpg","congruent","m",748.324557,"j","j","right","(862, 362)",149,1,761.52444079484,70.7113972750381," 1544.54",184,3,1,1
"3",44,"right","SHINEd_Carrot.jpg","incongruent","n",NA,"miss","f","left","(862, 362)",281,0,NA,NA," 1103.17",332,3,1,1
"3",45,"right","SHINEd_Oyster.jpg","incongruent","n",NA,"miss","f","left","(862, 362)",433,0,NA,NA," 1402.93",23,3,1,1
"3",46,"right","SHINEd_Boat_Colourful.jpg","congruent","m",586.2184,"f","j","right","(862, 362)",173,0,598.866847866281,-91.9461956535207," 1749.68",134,4,1,1
"3",47,"right","SHINEd_Dog_ChowChow.jpg","incongruent","n",494.507409,"f","f","left","(862, 362)",369,1,506.972044890095,-183.840998629707," 7939.83",206,4,1,1
"3",48,"right","SHINEd_artichoke.jpg","incongruent","n",529.510021,"f","f","left","(862, 362)",453,1,541.790844913909,-149.022198605893," 1647.50",56,4,1,1
"3",49,"right","SHINEd_FlipFlop_PairBlue.jpg","congruent","m",837.949474,"j","j","right","(862, 362)",153,1,850.046485937723,159.233442417921," 1224.27",430,3,1,1
"3",50,"left","SHINEd_Lipstick.jpg","incongruent","m",889.6351,"j","j","right","(148, 362)",198,1,901.548299961536,210.735256441734,"  684.40",436,2,0,0
"3",51,"left","SHINEd_Cat.jpg","congruent","n",566.97722,"f","f","left","(148, 362)",362,1,578.70660798535,-112.106435534452," 1663.77",70,4,1,1
"3",52,"right","SHINEd_Mattress.jpg","congruent","m",562.956166,"j","j","right","(862, 362)",49,1,574.501742009164,-116.311301510638,"  918.34",110,3,1,1
"3",53,"right","SHINEd_Bird_Parrot.jpg","incongruent","n",551.95045,"f","f","left","(862, 362)",233,1,563.312214032978,-127.500829486824,"  900.06",300,4,1,1
"3",54,"right","SHINEd_fountain.jpg","congruent","m",971.215198,"j","j","right","(862, 362)",169,1,982.393150056791,291.580106536989,"  767.23",350,4,0,0
"3",55,"left","SHINEd_Nail.jpg","incongruent","m",950.987788,"j","j","right","(148, 362)",38,1,961.981928080605,271.168884560803,"12990.72",451,4,1,1
"3",56,"right","SHINEd_dragonfruit.jpg","incongruent","n",604.527353,"f","f","left","(862, 362)",437,1,615.337681104419,-75.4753624153832,"  990.55",131,3,1,1
"3",57,"left","SHINEd_Radish.jpg","congruent","n",NA,"miss","f","left","(148, 362)",242,0,NA,NA," 2582.99",329,3,0,0
"3",58,"left","SHINEd_Slippers.jpg","incongruent","m",965.783361,"j","j","right","(148, 362)",154,1,976.226065152046,285.413021632244,"  478.34",364,3,0,0
"3",59,"right","SHINEd_Skates.jpg","congruent","m",609.614216,"j","j","right","(862, 362)",125,1,619.87310817586,-70.9399353439418,"  672.69",150,2,0,0
"3",60,"left","SHINEd_Teapot.jpg","incongruent","m",509.91266,"j","j","right","(148, 362)",214,1,519.987740199674,-170.825303320128," 5993.06",398,1,1,NA
"3",61,"right","SHINEd_Turtle.jpg","incongruent","n",730.6077,"f","f","left","(862, 362)",305,1,740.498968223488,49.6859247036857,"  918.95",381,3,1,1
"3",62,"right","SHINEd_Camera_Video.jpg","congruent","m",638.037911,"j","j","right","(862, 362)",97,1,647.745367247301,-43.0676762725006," 2303.21",286,3,0,0
"3",63,"right","SHINEd_white_strawberries.jpg","incongruent","n",659.267559,"f","f","left","(862, 362)",417,1,668.791203271115,-22.0218402486869," 1670.81",58,2,0,0
"3",64,"left","SHINEd_RamAnimal.jpg","congruent","n",NA,"miss","f","left","(148, 362)",454,0,NA,NA," 1724.90",66,4,1,1
"3",65,"right","SHINEd_orchid.jpg","incongruent","n",804.892965,"j","f","left","(862, 362)",261,0,814.048985318743,123.235941798941," 1454.54",10,4,1,1
"3",66,"left","SHINEd_brownbeans.jpg","congruent","n",871.564325,"f","f","left","(148, 362)",366,1,880.536533342556,189.723489822754," 3822.69",95,4,0,0
"3",67,"right","SHINEd_starfruit.jpg","incongruent","n",598.11923,"f","f","left","(862, 362)",317,1,606.90762636637,-83.9054171534318," 2014.13",2,3,1,1
"3",68,"left","SHINEd_Box_Notepaper.jpg","incongruent","m",601.835578,"j","j","right","(148, 362)",70,1,610.440162390184,-80.3728811296181," 9183.86",261,4,1,1
"3",69,"left","SHINEd_skeleton-lizard.jpg","congruent","n",671.4609,"f","f","left","(148, 362)",250,1,679.881672413998,-10.9313711058043," 1353.63",371,4,1,1
"3",70,"left","SHINEd_Clarinet.jpg","incongruent","m",499.759097,"f","j","right","(148, 362)",6,0,507.996057437811,-182.816986081991," 1490.19",88,4,1,1
"3",71,"right","SHINEd_Wheel_Steering.jpg","congruent","m",623.876744,"j","j","right","(862, 362)",185,1,631.929892461625,-58.8831510581768,"  989.75",281,4,1,1
"3",72,"left","SHINEd_Clip_Paper.jpg","incongruent","m",860.111602,"j","j","right","(148, 362)",66,1,867.980938485439,177.167894965637," 1734.76",159,4,1,1
"3",73,"right","SHINEd_Gametable_AirHockey.jpg","congruent","m",530.596901,"j","j","right","(862, 362)",85,1,538.282425509253,-152.530618010549,"  605.39",392,3,0,0
"3",74,"left","SHINEd_ElectricOutlet.jpg","incongruent","m",406.767397,"j","j","right","(148, 362)",102,1,414.269109533066,-276.543933986736,"  768.62",43,4,1,1
"3",75,"right","SHINEd_Vase_Decorative copy.jpg","congruent","m",563.548267,"j","j","right","(862, 362)",221,1,570.86616755688,-119.946875962922," 1710.52",308,3,0,0
"3",76,"left","SHINEd_Feet.jpg","congruent","n",582.745656,"f","f","left","(148, 362)",310,1,589.879744580694,-100.933298939108," 1087.17",153,4,1,1
"3",77,"left","SHINEd_MobilityScooter.jpg","incongruent","m",739.631655,"j","j","right","(148, 362)",182,1,746.581931604508,55.7688880847057,"  534.23",318,3,0,0
"3",78,"right","SHINEd_Escalator.jpg","congruent","m",568.280794,"j","j","right","(862, 362)",177,1,575.047258628322,-115.765784891481,"  527.44",146,4,0,0
"3",79,"right","SHINEd_dinosaur fossil.jpg","incongruent","n",780.850421,"f","f","left","(862, 362)",377,1,787.433073652135,96.6200301323332," 1238.42",290,3,0,0
"3",80,"right","SHINEd_HairDryer.jpg","congruent","m",744.789161,"j","j","right","(862, 362)",45,1,751.188001675949,60.374958156147," 1167.32",76,3,0,0
"3",81,"right","SHINEd_koala.jpg","incongruent","n",644.604143,"f","f","left","(862, 362)",365,1,650.819171699763,-39.9938718200393," 2224.88",36,2,1,NA
"3",82,"right","SHINEd_Pacifier.jpg","congruent","m",610.38512,"j","j","right","(862, 362)",81,1,616.416336723576,-74.3967067962255," 1519.06",173,4,1,1
"3",83,"right","SHINEd_catfish.jpg","incongruent","n",950.189631,"f","f","left","(862, 362)",361,1,956.03703574739,265.223992227588,"  662.46",319,3,0,0
"3",84,"left","SHINEd_purple_yam.jpg","congruent","n",610.752469,"f","f","left","(148, 362)",442,1,616.416061771204,-74.396981748598," 1838.37",44,4,1,1
"3",85,"right","SHINEd_frog.jpg","incongruent","n",678.687992,"j","f","left","(862, 362)",345,0,684.167772795018,-6.64527072478429," 1285.02",251,4,0,0
"3",86,"left","SHINEd_avocado.jpg","congruent","n",451.474371,"f","f","left","(148, 362)",394,1,456.770339818832,-234.042703700971,"  783.86",375,4,1,1
"3",87,"left","SHINEd_pomegrant.jpg","congruent","n",401.354969,"f","f","left","(148, 362)",354,1,406.467125842645,-284.345917677157," 1025.86",266,3,0,0
"3",88,"left","SHINEd_Mask_HockeyGoalie.jpg","incongruent","m",748.516751,"f","j","right","(148, 362)",126,0,753.445095866459,62.632052346657," 1687.85",284,3,0,0
"3",89,"right","SHINEd_Drum_Bongos.jpg","congruent","m",761.645597,"j","j","right","(862, 362)",9,1,766.390129890273,75.5770863704707," 8304.31",210,2,1,NA
"3",90,"right","SHINEd_soil.jpg","incongruent","n",885.83077,"f","f","left","(862, 362)",289,1,890.391490914086,199.578447394284," 1741.87",274,1,1,NA
"3",91,"right","SHINEd_goldenberry.jpg","incongruent","n",555.408897,"f","f","left","(862, 362)",397,1,559.7858059379,-131.027237581902," 5678.44",289,3,0,0
"3",92,"left","SHINEd_greenapple.jpg","congruent","n",470.026096,"f","f","left","(148, 362)",410,1,474.219192961714,-216.593850558088," 1254.79",204,3,0,0
"3",93,"right","SHINEd_horse.jpg","incongruent","n",NA,"miss","f","left","(862, 362)",269,0,NA,NA," 2880.18",248,4,0,0
"3",94,"left","SHINEd_hyena.jpg","congruent","n",591.526269,"f","f","left","(148, 362)",422,1,595.351742009341,-95.4613015104606," 3014.13",30,2,0,0
"3",95,"right","SHINEd_platypus.jpg","incongruent","n",764.129033,"f","f","left","(862, 362)",293,1,767.770694033155,76.9576505133533," 1606.46",65,3,1,1
"3",96,"right","SHINEd_Paw.jpg","incongruent","n",880.566799,"f","f","left","(862, 362)",301,1,884.024648056969,193.211604537167," 1113.92",67,4,1,1
"3",97,"left","SHINEd_lotusroot.jpg","congruent","n",565.282348,"f","f","left","(148, 362)",298,1,568.556385080783,-122.256658439019," 1701.85",230,4,1,1
"3",98,"left","SHINEd_Weights_Dumbells.jpg","incongruent","m",850.156992,"j","j","right","(148, 362)",22,1,853.247217104596,162.434173584794,"  720.67",232,4,1,1
"3",99,"left","SHINEd_Pumpkin.jpg","congruent","n",678.264638,"f","f","left","(148, 362)",294,1,681.17105112841,-9.64199239139177," 1614.36",9,4,1,1
"3",100,"left","SHINEd_Boot_Rain.jpg","incongruent","m",827.189392,"f","j","right","(148, 362)",150,0,829.911993152224,139.098949632422," 3984.76",194,2,1,NA
"3",101,"left","SHINEd_Fryingpan.jpg","incongruent","m",663.449456,"j","j","right","(148, 362)",158,1,665.988245176038,-24.8247983437642," 1942.64",411,2,0,0
"3",102,"left","SHINEd_grasshopper.jpg","congruent","n",859.984566,"f","f","left","(148, 362)",286,1,862.339543199852,171.526499680049," 1008.53",103,3,0,0
"3",103,"right","SHINEd_whale.jpg","incongruent","n",736.938726,"f","f","left","(862, 362)",421,1,739.109891223665,48.2968477038632," 2264.37",197,4,0,0
"3",104,"left","SHINEd_Fruit_Orange.jpg","congruent","n",651.239249,"f","f","left","(148, 362)",302,1,653.226602247479,-37.586441272323,"  947.61",237,4,1,1
"3",105,"left","SHINEd_Cantaloupe.jpg","congruent","n",433.69295,"f","f","left","(148, 362)",338,1,435.496491271293,-255.316552248509,"10488.37",380,3,1,1
"3",106,"right","SHINEd_Tree_Fir.jpg","incongruent","n",NA,"miss","f","left","(862, 362)",229,0,NA,NA," 1000.04",424,4,1,1
"3",107,"left","SHINEd_Nuts_Pecan.jpg","congruent","n",632.591716,"f","f","left","(148, 362)",246,1,634.02763331892,-56.7854102008817,"  939.58",418,4,1,1
"3",108,"right","SHINEd_Giraffe.jpg","incongruent","n",525.475089,"f","f","left","(862, 362)",381,1,526.727194342734,-164.085849177068," 1638.10",312,4,1,1
"3",109,"left","SHINEd_SkullDeer.jpg","congruent","n",539.329752,"f","f","left","(148, 362)",278,1,540.398045366548,-150.414998153254,"  864.00",456,4,1,1
"3",110,"right","SHINEd_mosquito.jpg","incongruent","n",623.907783,"f","f","left","(862, 362)",393,1,624.792264390362,-66.0207791294405,"  957.86",192,3,1,1
"3",111,"right","SHINEd_Pants_Firefighter.jpg","congruent","m",747.295254,"j","j","right","(862, 362)",1,1,747.995923414175,57.1828798943733,"  718.26",104,3,0,0
"3",112,"left","SHINEd_Heater_Outdoor.jpg","incongruent","m",681.253151,"f","j","right","(148, 362)",170,0,681.770008437989,-9.04303508181296," 2420.93",264,3,0,0
"3",113,"right","SHINEd_Carabiner_Orange.jpg","congruent","m",429.449901,"j","j","right","(862, 362)",29,1,429.782946461803,-261.030097057999," 1116.95",438,4,1,1
"3",114,"left","SHINEd_mushroom_other.jpg","congruent","n",337.162541,"j","f","left","(148, 362)",426,0,337.311774485617,-353.501269034185," 2729.10",32,4,1,1
"3",115,"right","SHINEd_Elephant.jpg","incongruent","n",757.346493,"f","f","left","(862, 362)",349,1,757.31191450943,66.4988709896283," 1320.12",198,4,1,1
"3",116,"right","SHINEd_Hat_Baseball.jpg","congruent","m",777.605683,"j","j","right","(862, 362)",189,1,777.387292533244,86.5742490134421,"  776.11",383,3,1,1
"3",117,"left","SHINEd_CasketOpen.jpg","incongruent","m",975.09186,"f","j","right","(148, 362)",218,0,974.689657557058,283.876614037256," 1360.29",99,4,1,1
"3",118,"right","SHINEd_Vest.jpg","congruent","m",563.815987,"j","j","right","(862, 362)",5,1,563.229972580872,-127.583070938931," 1599.47",16,2,1,NA
"3",119,"left","SHINEd_airpump.jpg","incongruent","m",447.4287,"j","j","right","(148, 362)",114,1,446.658873604685,-244.154169915117," 2647.02",50,2,1,NA
"3",120,"left","SHINEd_Grape.jpg","congruent","n",578.972425,"f","f","left","(148, 362)",274,1,578.018786628499,-112.794256891303," 1159.34",442,4,1,1
"3",121,"left","SHINEd_PictureFrame.jpg","incongruent","m",881.10848,"f","j","right","(148, 362)",222,0,879.971029652313,189.157986132511,"  688.60",265,3,0,0
"3",122,"right","SHINEd_Gloves_WhiteKnit.jpg","congruent","m",NA,"miss","j","right","(862, 362)",197,0,NA,NA," 1128.11",111,4,1,1
"3",123,"right","SHINEd_Bird_Eagle.jpg","incongruent","n",784.505202,"f","f","left","(862, 362)",257,1,783.00012769994,92.1870841801384," 2367.99",130,3,1,1
"3",124,"right","SHINEd_cheetah.jpg","incongruent","n",613.715109,"f","f","left","(862, 362)",245,1,612.026222723754,-78.7868207960479," 1794.63",277,1,1,NA
"3",125,"right","SHINEd_Bottle_Blue.jpg","congruent","m",NA,"miss","j","right","(862, 362)",217,0,NA,NA," 1055.44",433,4,1,1
"3",126,"left","SHINEd_ClothCoaster.jpg","incongruent","m",590.124819,"j","j","right","(148, 362)",142,1,588.068308771382,-102.74473474842," 4934.20",313,3,1,1
"3",127,"left","SHINEd_scallion.jpg","congruent","n",633.074983,"f","f","left","(148, 362)",314,1,630.834660795195,-59.9783827246067," 2623.08",68,4,1,1
"3",128,"left","SHINEd_Slide.jpg","incongruent","m",NA,"miss","j","right","(148, 362)",82,0,NA,NA," 3535.71",144,4,0,0
"3",129,"left","SHINEd_skunk.jpg","congruent","n",683.777842,"f","f","left","(148, 362)",290,1,681.169895842823,-9.6431476769792," 2214.05",377,4,1,1
"3",130,"left","SHINEd_HairClip.jpg","incongruent","m",839.109596,"j","j","right","(148, 362)",194,1,836.317837866637,145.504794346835," 1143.41",37,4,1,1
"3",131,"left","SHINEd_Bowl_Fruits.jpg","congruent","n",795.81331,"f","f","left","(148, 362)",434,1,792.83773989045,102.024696370648,"12600.10",253,3,1,1
"3",132,"left","SHINEd_rabbitt.jpg","congruent","n",910.424842,"f","f","left","(148, 362)",350,1,907.265459914264,216.452416394462," 1831.55",41,4,1,1
"3",133,"right","SHINEd_Lilypad.jpg","incongruent","n",NA,"miss","f","left","(862, 362)",413,0,NA,NA," 1046.83",379,4,1,1
"3",134,"right","SHINEd_Switch_LightWhite.jpg","congruent","m",615.476956,"j","j","right","(862, 362)",57,1,611.949949961892,-78.8630935579104," 1118.31",260,3,0,0
"3",135,"right","SHINEd_Toad.jpg","incongruent","n",738.702878,"f","f","left","(862, 362)",441,1,734.992059985705,44.1790164659034," 1015.65",354,4,1,1
"3",136,"right","SHINEd_red_panda.jpg","incongruent","n",716.838087,"f","f","left","(862, 362)",273,1,712.943457009519,22.1304134897171,"18205.81",269,2,1,NA
"3",137,"right","SHINEd_Desk_School.jpg","congruent","m",581.949597,"j","j","right","(862, 362)",201,1,577.871155033333,-112.941888486469," 1189.25",345,4,1,1
"3",138,"right","SHINEd_Bleachers.jpg","congruent","m",641.286994,"j","j","right","(862, 362)",133,1,637.024740057147,-53.7883034626553,"  917.76",428,3,0,0
"3",139,"left","SHINEd_Bucket_Rusty.jpg","incongruent","m",741.926483,"j","j","right","(148, 362)",34,1,737.48041708096,46.6673735611583," 1096.48",271,1,1,NA
"3",140,"right","SHINEd_Saw.jpg","congruent","m",865.646935,"j","j","right","(862, 362)",33,1,861.017057104774,170.204013584972,"  999.71",349,4,0,0
"3",141,"left","SHINEd_Boardgame_Chess.jpg","incongruent","m",686.512589,"f","j","right","(148, 362)",86,0,681.698899128588,-9.11414439121407," 1146.02",226,4,1,1
"3",142,"left","SHINEd_Seashell_BayScallop.jpg","congruent","n",690.196024,"j","f","left","(148, 362)",270,0,685.198522152402,-5.61452136740041," 1159.63",244,4,1,1
"3",143,"right","SHINEd_worm.jpg","incongruent","n",736.614418,"f","f","left","(862, 362)",389,1,731.433104176215,40.6200606564134," 8087.09",445,4,1,1
"3",144,"left","SHINEd_red_Cabbage.jpg","congruent","n",869.099007,"f","f","left","(148, 362)",230,1,863.733881200029,172.920837680227,"  899.46",437,3,0,0
"3",145,"left","SHINEd_Ball_Basketball.jpg","incongruent","m",794.190797,"j","j","right","(148, 362)",130,1,788.641859223843,97.8288157040409," 1252.31",450,3,0,0
"3",146,"left","SHINEd_Bicycle_Kids.jpg","incongruent","m",853.730913,"j","j","right","(148, 362)",26,1,847.998163247657,157.185119727855," 2396.72",369,4,0,0
"3",147,"right","SHINEd_BowlingPin.jpg","congruent","m",482.391167,"j","j","right","(862, 362)",25,1,476.47460527147,-214.338438248332," 1223.91",85,2,0,0
"3",148,"left","SHINEd_ChalkboardEraser.jpg","incongruent","m",839.401299,"j","j","right","(148, 362)",62,1,833.300925295284,142.487881775482,"  725.85",330,3,0,0
"3",149,"left","SHINEd_rose.jpg","congruent","n",835.558842,"f","f","left","(148, 362)",430,1,829.274656319098,138.461612799296," 3175.55",40,4,1,1
"3",150,"right","SHINEd_ChainRusty.jpg","congruent","m",709.926034,"j","j","right","(862, 362)",21,1,703.458036342912,12.6449928231096,"  760.74",221,4,1,1
"3",151,"right","SHINEd_BasketballHoop.jpg","congruent","m",923.782408,"j","j","right","(862, 362)",129,1,917.130598366725,226.317554846923,"  895.44",421,4,1,1
"3",152,"left","SHINEd_Kite_Rainbow.jpg","incongruent","m",758.962631,"f","j","right","(148, 362)",78,0,752.127009390539,61.3139658707371," 1292.64",416,4,1,1
"3",153,"left","SHINEd_Deodorant.jpg","incongruent","m",812.03488,"j","j","right","(148, 362)",118,1,805.015446414353,114.202402894551," 1073.83",325,4,0,0
"3",154,"right","SHINEd_Knife_Camping.jpg","congruent","m",720.693708,"j","j","right","(862, 362)",37,1,713.490462438167,22.6774189183647," 1062.16",331,4,1,1
"3",155,"right","SHINEd_Binder.jpg","congruent","m",580.622411,"j","j","right","(862, 362)",65,1,573.23535346198,-117.577690057822," 1182.37",351,4,1,1
"3",156,"left","SHINEd_wheat_stock.jpg","congruent","n",753.376106,"f","f","left","(148, 362)",358,1,745.805236485794,54.9921929659922,"  985.72",263,4,1,1
"3",157,"right","SHINEd_donkey.jpg","incongruent","n",685.896746,"f","f","left","(862, 362)",409,1,678.142064509608,-12.6709790101941," 5831.04",57,1,1,NA
"3",158,"right","SHINEd_vanillabean copy.jpg","incongruent","n",NA,"miss","f","left","(862, 362)",329,0,NA,NA," 1519.11",413,4,1,1
"3",159,"right","SHINEd_DoorKnob.jpg","congruent","m",885.786463,"j","j","right","(862, 362)",53,1,877.664157557236,186.851114037433," 1120.42",211,1,1,NA
"3",160,"right","SHINEd_Megaphone.jpg","congruent","m",634.332995,"j","j","right","(862, 362)",101,1,626.026877581049,-64.7861659387528," 1597.25",376,3,1,1
"3",161,"left","SHINEd_Cheesegrater_Handheld.jpg","incongruent","m",711.641227,"j","j","right","(148, 362)",162,1,703.151297604863,12.3382540850609," 1447.01",34,3,1,1
"3",162,"left","SHINEd_durian.jpg","congruent","n",675.148385,"f","f","left","(148, 362)",374,1,666.474643628677,-24.3383998911253," 2120.27",220,4,1,1
"3",163,"right","SHINEd_Knee.jpg","incongruent","n",839.388028,"j","f","left","(862, 362)",309,0,830.53047465249,139.717431132688," 1501.36",185,4,1,1
"3",164,"left","SHINEd_Lips_Real.jpg","congruent","n",891.94948,"f","f","left","(148, 362)",390,1,882.908114676304,192.095071156502," 1271.94",181,4,1,1
"3",165,"left","SHINEd_accordion.jpg","incongruent","m",720.774143,"f","j","right","(148, 362)",10,0,711.548965700118,20.7359221803159,"  959.19",262,4,1,1
"3",166,"right","SHINEd_Corn.jpg","incongruent","n",741.208695,"f","f","left","(862, 362)",337,1,731.799705723932,40.9866622041297," 1574.54",344,4,1,1
"3",167,"right","SHINEd_Kettle.jpg","congruent","m",914.468524,"j","j","right","(862, 362)",157,1,904.875722747745,214.062679227943," 1376.31",51,4,1,1
"3",168,"left","SHINEd_Calculator.jpg","incongruent","m",582.125722,"j","j","right","(148, 362)",94,1,572.349108771559,-118.463934748243," 1598.32",59,4,1,1
"3",169,"right","SHINEd_BicycleChain.jpg","congruent","m",658.30404,"j","j","right","(862, 362)",17,1,648.343614795373,-42.4694287244291,"  955.18",299,4,1,1
"3",170,"left","SHINEd_manatee.jpg","congruent","n",696.005923,"f","f","left","(148, 362)",342,1,685.861685819187,-4.95135770061523," 4959.06",81,1,1,NA
"3",171,"left","SHINEd_Flamingo_Real.jpg","congruent","n",778.58613,"f","f","left","(148, 362)",406,1,768.258080843,77.4450373231985,"  831.46",393,4,0,0
"3",172,"left","SHINEd_LawnMower.jpg","incongruent","m",782.946307,"j","j","right","(148, 362)",46,1,772.434445866814,81.6214023470123,"  661.71",422,4,1,1
"3",173,"left","SHINEd_Cherry.jpg","congruent","n",828.624952,"f","f","left","(148, 362)",258,1,817.929278890628,127.116235370826," 1103.53",346,2,1,NA
"3",174,"right","SHINEd_Cloud.jpg","incongruent","n",NA,"miss","f","left","(862, 362)",385,0,NA,NA,"  911.26",112,4,1,1
"3",175,"right","SHINEd_DogHouse.jpg","congruent","m",NA,"miss","j","right","(862, 362)",165,0,NA,NA," 1495.08",189,1,1,NA
"3",176,"left","SHINEd_Dog_CockerSpaniel.jpg","congruent","n",543.722686,"f","f","left","(148, 362)",306,1,532.475576962069,-158.337466557733," 2863.36",29,3,1,1
"3",177,"left","SHINEd_Bathtub.jpg","incongruent","m",845.781851,"j","j","right","(148, 362)",58,1,834.350929985883,143.537886466081," 1593.38",21,4,1,1
"3",178,"right","SHINEd_MusicSheet.jpg","congruent","m",641.134416,"j","j","right","(862, 362)",13,1,629.519683009697,-61.2933605101053," 1008.11",409,4,1,1
"3",179,"right","SHINEd_Snail.jpg","incongruent","n",NA,"miss","f","left","(862, 362)",241,0,NA,NA," 2168.20",201,4,1,1
"3",180,"left","SHINEd_Dog_Bulldog.jpg","congruent","n",777.188733,"f","f","left","(148, 362)",326,1,765.206376057324,74.3933325375222,"  832.38",73,4,1,1
"3",181,"right","SHINEd_FileDivider.jpg","congruent","m",566.56772,"j","j","right","(862, 362)",69,1,554.401551081138,-136.411492438664," 1903.19",385,4,1,1
"3",182,"left","SHINEd_Glove_Rubber.jpg","incongruent","m",NA,"miss","j","right","(148, 362)",138,0,NA,NA,"  947.64",408,4,0,0
"3",183,"left","SHINEd_Gecko.jpg","congruent","n",567.564849,"f","f","left","(148, 362)",370,1,555.031056128765,-135.781987391037,"  888.56",358,4,1,1
"3",184,"left","SHINEd_RollerBlade.jpg","incongruent","m",821.088562,"j","j","right","(148, 362)",178,1,808.370957152579,117.557913632777," 1014.49",373,4,1,1
"3",185,"left","SHINEd_Starfish.jpg","congruent","n",866.180856,"j","f","left","(148, 362)",378,0,853.279439176393,162.466395656591,"  668.03",419,4,1,1
"3",186,"left","SHINEd_Car_Vintage.jpg","incongruent","m",NA,"miss","j","right","(148, 362)",186,0,NA,NA," 1880.12",93,3,0,0
"3",187,"right","SHINEd_Gum_Pack.jpg","congruent","m",754.131116,"j","j","right","(862, 362)",77,1,740.862075224021,50.0490317042185," 1440.28",314,3,1,1
"3",188,"left","SHINEd_Mirror_Makeup.jpg","incongruent","m",878.030189,"j","j","right","(148, 362)",122,1,864.577336247834,173.764292728032," 1383.74",254,2,1,NA
"3",189,"left","SHINEd_Bugle.jpg","incongruent","m",739.114289,"j","j","right","(148, 362)",14,1,725.477624271648,34.664580751846," 1096.55",207,4,1,1
"3",190,"right","SHINEd_Bowl_Wooden.jpg","congruent","m",478.030021,"j","j","right","(862, 362)",141,1,464.209544295462,-226.60349922434," 1363.11",79,4,1,1
"3",191,"right","SHINEd_Clock_Radio.jpg","congruent","m",546.077027,"j","j","right","(862, 362)",93,1,532.072738319276,-158.740305200526," 1230.57",127,3,1,1
"3",192,"left","SHINEd_Cane_Metal.jpg","incongruent","m",831.075785,"f","j","right","(148, 362)",190,0,816.887684343089,126.074640823287," 1982.89",280,2,1,NA
"3",193,"right","SHINEd_cottonplant.jpg","incongruent","n",930.872377,"j","f","left","(862, 362)",297,0,916.500464366903,225.687420847101," 1654.26",151,4,1,1
"3",194,"right","SHINEd_BusStop.jpg","congruent","m",NA,"miss","j","right","(862, 362)",145,0,NA,NA," 1175.62",90,3,0,0
"3",195,"left","SHINEd_PencilSharpener.jpg","incongruent","m",963.046596,"j","j","right","(148, 362)",74,1,948.307059414531,257.494015894729," 4324.06",322,1,1,NA
"3",196,"right","SHINEd_Crown.jpg","congruent","m",585.680314,"j","j","right","(862, 362)",193,1,570.756965438344,-120.056078081458," 1199.99",306,3,1,1
"3",197,"right","SHINEd_Chair_High.jpg","congruent","m",564.984528,"j","j","right","(862, 362)",209,1,549.877367462158,-140.935676057644,"  773.76",362,3,0,0
"3",198,"left","SHINEd_volcano copy.jpg","congruent","n",723.522544,"j","f","left","(148, 362)",234,0,708.231571485972,17.4185279661698," 2616.64",38,4,1,1
"3",199,"right","SHINEd_Collards.jpg","incongruent","n",695.728884,"f","f","left","(862, 362)",445,1,680.254099509786,-10.5589440100165," 1126.16",182,3,1,1
"3",200,"left","SHINEd_honeydew.jpg","congruent","n",723.361151,"f","f","left","(148, 362)",330,1,707.702554533599,16.8895110137973," 2205.80",311,2,0,0
"3",201,"right","SHINEd_Cabinet_Display.jpg","congruent","m",847.673012,"j","j","right","(862, 362)",205,1,831.830603557413,141.017560037611," 1625.51",166,3,0,0
"3",202,"right","SHINEd_Broccoli.jpg","incongruent","n",922.994764,"f","f","left","(862, 362)",253,1,906.968543581227,216.155500061425,"  769.93",149,4,0,0
"3",203,"right","SHINEd_Mitt_Oven.jpg","congruent","m",913.216217,"j","j","right","(862, 362)",137,1,897.006184605041,206.193141085239," 2063.20",49,4,1,1
"3",204,"left","SHINEd_peacockfeather.jpg","congruent","n",869.722349,"j","f","left","(148, 362)",382,0,853.328504628854,162.515461109052,"  803.03",238,4,1,1
"3",205,"left","SHINEd_Jacket_Suit.jpg","incongruent","m",705.607531,"j","j","right","(148, 362)",2,1,689.029874652668,-1.78316886713394," 1789.77",26,1,0,0
"3",206,"right","SHINEd_Pineapple.jpg","incongruent","n",535.264672,"f","f","left","(862, 362)",353,1,518.503203676482,-172.30983984332,"  885.04",292,4,1,1
"3",207,"left","SHINEd_ladybug.jpg","congruent","n",850.822741,"f","f","left","(148, 362)",238,1,833.877460700296,143.064417180494,"  998.26",154,4,1,1
"3",208,"left","SHINEd_Beater_Electric.jpg","incongruent","m",688.346448,"j","j","right","(148, 362)",42,1,671.217355724109,-19.5956877956927," 1037.31",455,4,1,1
"3",209,"left","SHINEd_LightHouse.jpg","incongruent","m",667.446031,"j","j","right","(148, 362)",146,1,650.133126747923,-40.679916771879," 8334.44",395,4,1,1
"3",210,"left","SHINEd_Currants.jpg","congruent","n",568.867963,"f","f","left","(148, 362)",254,1,551.371246771737,-139.441796748065," 1272.38",71,4,1,1
"3",211,"left","SHINEd_fox.jpg","congruent","n",756.185443,"f","f","left","(148, 362)",334,1,738.504914795551,47.6918712757486," 2063.38",61,4,1,1
"3",212,"right","SHINEd_Branch.jpg","incongruent","n",794.110727,"j","f","left","(862, 362)",333,0,776.246386819364,85.4333432995623," 1677.16",338,3,1,1
"3",213,"right","SHINEd_Fish_Rockbass.jpg","incongruent","n",NA,"miss","f","left","(862, 362)",341,0,NA,NA," 1399.80",13,4,1,1
"3",214,"left","SHINEd_Nuts_Walnut.jpg","congruent","n",442.907254,"f","f","left","(148, 362)",446,1,424.675289866992,-266.13775365281," 2753.76",143,4,0,0
"3",215,"right","SHINEd_Leg.jpg","incongruent","n",727.26303,"j","f","left","(862, 362)",405,0,708.847253890806,18.0342103710036," 2191.51",133,3,0,0
"3",216,"right","SHINEd_rhino horn.jpg","incongruent","n",NA,"miss","f","left","(862, 362)",249,0,NA,NA," 2062.23",324,4,0,0
"3",217,"left","SHINEd_BearPolar.jpg","congruent","n",519.421021,"f","f","left","(148, 362)",386,1,500.637620938433,-190.175422581369," 1224.55",27,4,1,1
"3",218,"left","SHINEd_Hourglass.jpg","incongruent","m",716.324956,"j","j","right","(148, 362)",110,1,697.357743962247,6.5447004424449,"  767.13",72,4,1,1
"3",219,"right","SHINEd_Mango.jpg","incongruent","n",NA,"miss","f","left","(862, 362)",277,0,NA,NA," 2839.13",3,3,0,0
"3",220,"left","SHINEd_Cranberry.jpg","congruent","n",468.770724,"j","f","left","(148, 362)",398,0,449.435888009874,-241.377155509928,"  759.09",443,4,1,1
"3",221,"left","SHINEd_spinach.jpg","congruent","n",570.368211,"f","f","left","(148, 362)",266,1,550.849563033688,-139.963480486114,"12376.35",240,4,1,1
"3",222,"right","SHINEd_ShoppingCart.jpg","congruent","m",614.880064,"j","j","right","(862, 362)",109,1,595.177604057502,-95.6354394623002,"  647.81",390,3,0,0
"3",223,"right","SHINEd_Jetski.jpg","congruent","m",570.589829,"j","j","right","(862, 362)",181,1,550.703557081316,-140.109486438486," 1738.90",179,3,0,0
"3",224,"right","SHINEd_pumpkinseeds-.jpg","incongruent","n",415.763384,"j","f","left","(862, 362)",237,0,395.693300105129,-295.119743414673,"  847.50",92,4,1,1
"3",225,"left","SHINEd_Scooter.jpg","incongruent","m",773.71878,"j","j","right","(148, 362)",174,1,753.464884128943,62.6518406091412," 1430.97",108,4,1,1
"3",226,"right","SHINEd_Cannon.jpg","congruent","m",553.176542,"j","j","right","(862, 362)",61,1,532.738834152757,-158.074209367045,"10534.01",268,2,1,NA
"3",227,"left","SHINEd_Ball_Bowling.jpg","incongruent","m",597.004814,"j","j","right","(148, 362)",134,1,576.383294176571,-114.429749343231," 1519.07",17,4,1,1
"3",228,"left","SHINEd_USBKey.jpg","incongruent","m",704.775171,"j","j","right","(148, 362)",90,1,683.969839200384,-6.8432043194176," 1206.92",355,4,1,1
