"participant","trial_index","screenposition","stimulus","trialtype","classifyenc","rt","response","responsecorrect","responsecorrect_side","screenlocation","stimnum","acc","rtResidual","rtResidualC","rt_rec","trialno_rec","ratingConfidence","acc_rec","memoryHits.hc"
"40",1,"left","SHINEd_Buffalo.jpg","incongruent","n",787.484547,"j","j","right","(148, 362)",432,1,779.90484261847,115.383419828996," 2758.18",153,3,1,1
"40",2,"left","SHINEd_IroningBoard.jpg","congruent","m",702.394049,"f","f","left","(148, 362)",52,1,694.880741291248,30.3593185017739," 1168.22",101,4,1,1
"40",3,"left","SHINEd_Pitcher.jpg","congruent","m",619.050522,"f","f","left","(148, 362)",56,1,611.603610964023,-52.9178118254511,"  781.58",434,4,0,0
"40",4,"right","SHINEd_Crayon_Green.jpg","incongruent","m",725.230327,"f","f","left","(862, 362)",63,1,717.849812636798,53.3283898473239," 2032.95",147,4,0,0
"40",5,"right","SHINEd_lime.jpg","congruent","n",786.2453,"j","j","right","(862, 362)",439,1,778.931182309573,114.409759520099," 2461.40",165,3,0,0
"40",6,"left","SHINEd_Banana.jpg","incongruent","n",653.481441,"j","j","right","(148, 362)",376,1,646.233719982348,-18.287702807126," 3142.77",119,4,1,1
"40",7,"right","SHINEd_Potato.jpg","congruent","n",687.702301,"j","j","right","(862, 362)",423,1,680.520976655123,15.999553865649,"  866.05",222,4,1,1
"40",8,"right","SHINEd_Candleholder_LampShaped.jpg","incongruent","m",NA,"miss","f","left","(862, 362)",111,0,NA,NA,"  805.77",436,4,0,0
"40",9,"right","SHINEd_Sand.jpg","congruent","n",824.378321,"f","j","right","(862, 362)",279,0,817.329790000673,152.808367211199,"  816.73",313,4,1,1
"40",10,"left","SHINEd_chick hatch.jpg","incongruent","n",972.187961,"j","j","right","(148, 362)",384,1,965.205826673448,300.684403883974," 1534.16",187,4,1,1
"40",11,"left","SHINEd_CanOpener.jpg","congruent","m",671.309004,"f","f","left","(148, 362)",160,1,664.393266346223,-0.128156443250954," 2768.12",92,2,1,NA
"40",12,"left","SHINEd_lorises.jpg","incongruent","n",618.318099,"j","j","right","(148, 362)",428,1,611.468758018998,-53.0526647704759," 1228.70",27,4,1,1
"40",13,"left","SHINEd_GasStation.jpg","congruent","m",661.502218,"f","f","left","(148, 362)",168,1,654.719273691773,-9.8021490977009,"  719.31",275,4,0,0
"40",14,"right","SHINEd_MannequinBust.jpg","incongruent","m",624.203137,"f","f","left","(862, 362)",103,1,617.486589364548,-47.0348334249259,"  956.80",160,4,1,1
"40",15,"right","SHINEd_dates_fresh.jpg","congruent","n",909.327496,"j","j","right","(862, 362)",319,1,902.677345037323,238.155922247849," 2131.39",70,3,1,1
"40",16,"left","SHINEd_ant.jpg","incongruent","n",626.031088,"j","j","right","(148, 362)",328,1,619.447333710098,-45.0740890793758,"  918.17",25,4,1,1
"40",17,"left","SHINEd_EspressoMachine.jpg","congruent","m",812.254083,"f","f","left","(148, 362)",156,1,805.736725382873,141.215302593399," 1989.59",87,3,1,1
"40",18,"left","SHINEd_papaya.jpg","incongruent","n",726.285509,"j","j","right","(148, 362)",292,1,719.834548055648,55.3131252661743," 1217.70",135,4,0,0
"40",19,"left","SHINEd_Hand.jpg","incongruent","n",810.756375,"j","j","right","(148, 362)",284,1,804.371810728423,139.850387938949," 3012.92",44,4,1,1
"40",20,"left","SHINEd_alarm.jpg","congruent","m",629.059838,"f","f","left","(148, 362)",96,1,622.741670401198,-41.7797523882757," 1162.60",40,4,1,1
"40",21,"left","SHINEd_Boar.jpg","incongruent","n",562.20417,"j","j","right","(148, 362)",264,1,555.952399073973,-108.569023715501,"  992.77",265,4,1,1
"40",22,"right","SHINEd_KiddiePool.jpg","incongruent","m",926.471984,"f","f","left","(862, 362)",87,1,920.286609746748,255.765186957274," 3293.60",316,4,0,0
"40",23,"left","SHINEd_Outhouse.jpg","congruent","m",601.235657,"f","f","left","(148, 362)",164,1,595.116679419523,-69.4047433699507," 5571.66",425,4,0,0
"40",24,"right","SHINEd_Stroller.jpg","incongruent","m",788.549684,"f","f","left","(862, 362)",55,1,782.497103092298,117.975680302824," 1286.55",118,4,1,1
"40",25,"right","SHINEd_penguin.jpg","congruent","n",903.933916,"j","j","right","(862, 362)",307,1,897.947731765073,233.426308975599," 3081.97",52,4,1,1
"40",26,"right","SHINEd_Cable_AudioSplitter.jpg","incongruent","m",681.8885,"f","f","left","(862, 362)",91,1,675.968712437848,11.4472896483744," 1142.43",277,4,1,1
"40",27,"right","SHINEd_pine-cone-.jpg","congruent","n",798.570698,"j","j","right","(862, 362)",399,1,792.717307110623,128.195884321149," 1359.10",281,4,1,1
"40",28,"left","SHINEd_Bottle_Bleach.jpg","congruent","m",969.769007,"f","f","left","(148, 362)",212,1,963.982012783398,299.460589993924," 1180.15",18,4,1,1
"40",29,"right","SHINEd_Bed_Hospital.jpg","incongruent","m",724.130281,"f","f","left","(862, 362)",207,1,718.409683456173,53.8882606666995," 1798.45",410,4,0,0
"40",30,"left","SHINEd_ScannerShoplifting.jpg","congruent","m",610.960601,"f","f","left","(148, 362)",100,1,605.306400128948,-59.2150226605255," 2872.22",239,4,0,0
"40",31,"left","SHINEd_anteater.jpg","incongruent","n",558.885981,"j","j","right","(148, 362)",368,1,553.298176801723,-111.22324598775,"  981.65",140,4,1,1
"40",32,"left","SHINEd_blueberries.jpg","incongruent","n",762.435308,"j","j","right","(148, 362)",232,1,756.913900474498,92.3924776850245," 1665.76",354,4,1,1
"40",33,"right","SHINEd_alligator.jpg","congruent","n",NA,"miss","j","right","(862, 362)",355,0,NA,NA,"  895.16",33,4,1,1
"40",34,"right","SHINEd_Cage_Bird.jpg","incongruent","m",554.951676,"f","f","left","(862, 362)",123,1,549.563061820048,-114.958360969425,"  981.31",261,4,0,0
"40",35,"left","SHINEd_Shampoo.jpg","congruent","m",556.97596,"f","f","left","(148, 362)",120,1,551.653742492823,-112.86768029665," 1766.22",238,4,0,0
"40",36,"left","SHINEd_Pepper_Chili.jpg","incongruent","n",706.60556,"j","j","right","(148, 362)",240,1,701.349739165598,36.8283163761246,"  840.64",252,4,0,0
"40",37,"left","SHINEd_Bib.jpg","congruent","m",NA,"miss","f","left","(148, 362)",136,0,NA,NA,"  633.82",395,4,0,0
"40",38,"right","SHINEd_MousepadAndMouse.jpg","incongruent","m",728.938113,"j","f","left","(862, 362)",99,0,723.815085511148,59.2936627216747," 1048.05",65,4,1,1
"40",39,"left","SHINEd_Key_Car.jpg","congruent","m",691.077699,"f","f","left","(148, 362)",176,1,686.021068183923,21.4996453944497,"  852.68",198,4,0,0
"40",40,"right","SHINEd_Harp.jpg","incongruent","m",694.737442,"f","f","left","(862, 362)",11,1,689.747207856698,25.2257850672247," 1040.69",121,4,1,1
"40",41,"left","SHINEd_FireExtinguisher.jpg","congruent","m",499.101696,"f","f","left","(148, 362)",112,1,494.177858529473,-170.34356426," 1032.97",241,4,0,0
"40",42,"left","SHINEd_Sheep.jpg","incongruent","n",558.672437,"j","j","right","(148, 362)",300,1,553.814996202248,-110.706426587225,"  964.49",307,4,1,1
"40",43,"right","SHINEd_almond.jpg","congruent","n",562.705597,"j","j","right","(862, 362)",311,1,557.914552875023,-106.60686991445,"  833.36",97,4,1,1
"40",44,"right","SHINEd_Toolbox_RedOpen.jpg","incongruent","m",662.54993,"f","f","left","(862, 362)",39,1,657.825282547799,-6.69614024167518," 2258.65",17,4,1,1
"40",45,"left","SHINEd_vulture.jpg","incongruent","n",537.3139,"j","j","right","(148, 362)",436,1,532.655649220574,-131.8657735689," 1056.64",170,4,1,1
"40",46,"left","SHINEd_Clothespin_Red.jpg","congruent","m",517.67173,"f","f","left","(148, 362)",60,1,513.079875893349,-151.441546896125,"  974.48",125,4,1,1
"40",47,"right","SHINEd_Box_Staples.jpg","incongruent","m",697.420931,"f","f","left","(862, 362)",67,1,692.895473566124,28.3740507766499,"  628.87",406,4,0,0
"40",48,"right","SHINEd_firetruck.jpg","incongruent","m",709.895759,"f","f","left","(862, 362)",179,1,705.436698238899,40.9152754494249,"  688.22",415,4,0,0
"40",49,"right","SHINEd_beluga.jpg","congruent","n",616.522292,"j","j","right","(862, 362)",431,1,612.129627911674,-52.3917948778001," 1000.86",86,4,1,1
"40",50,"right","SHINEd_CapGraduation.jpg","incongruent","m",782.999089,"f","f","left","(862, 362)",187,1,778.672821584449,114.151398794975," 1526.52",193,4,1,1
"40",51,"left","SHINEd_Garbage_GreenBin.jpg","congruent","m",553.13768,"f","f","left","(148, 362)",144,1,548.877809257224,-115.64361353225," 1425.10",30,4,1,1
"40",52,"right","SHINEd_Cauliflower.jpg","congruent","n",588.684031,"j","j","right","(862, 362)",291,1,584.490556929999,-80.030865859475," 2414.26",280,4,1,1
"40",53,"right","SHINEd_Bowtie.jpg","incongruent","m",NA,"miss","f","left","(862, 362)",191,0,NA,NA,"  982.00",251,4,1,1
"40",54,"right","SHINEd_sanddollar.jpg","congruent","n",828.884787,"f","j","right","(862, 362)",295,0,824.824106275549,160.302683486075," 6301.14",404,4,1,1
"40",55,"left","SHINEd_Lobster.jpg","incongruent","n",600.314647,"j","j","right","(148, 362)",288,1,596.320362948324,-68.2010598411499," 1087.39",28,4,1,1
"40",56,"left","SHINEd_mint.jpg","incongruent","n",868.846444,"j","j","right","(148, 362)",360,1,864.918556621099,200.397133831625,"  671.98",305,4,0,0
"40",57,"right","SHINEd_Hedgehog.jpg","congruent","n",649.824158,"j","j","right","(862, 362)",243,1,645.962667293874,-18.5587554955999,"  940.41",408,4,1,1
"40",58,"right","SHINEd_MalletJudge.jpg","incongruent","m",637.144898,"f","f","left","(862, 362)",35,1,633.349803966649,-31.1716188228249," 1023.03",64,4,1,1
"40",59,"right","SHINEd_clementine.jpg","congruent","n",639.62012,"j","j","right","(862, 362)",359,1,635.891422639424,-28.6300001500498," 1997.68",262,4,1,1
"40",60,"right","SHINEd_Basket_Plastic.jpg","incongruent","m",548.217959,"f","f","left","(862, 362)",211,1,544.555658312199,-119.965764477275,"  733.78",366,4,0,0
"40",61,"right","SHINEd_Dresser.jpg","incongruent","m",830.454852,"f","f","left","(862, 362)",203,1,826.858947984974,162.3375251955," 3214.17",35,3,0,0
"40",62,"left","SHINEd_Cassette_Audio.jpg","congruent","m",NA,"miss","f","left","(148, 362)",148,0,NA,NA," 2118.59",84,3,1,1
"40",63,"left","SHINEd_maggotts.jpg","incongruent","n",855.171261,"j","j","right","(148, 362)",392,1,851.708150330524,187.18672754105," 1311.38",133,4,1,1
"40",64,"right","SHINEd_Seal_animal.jpg","congruent","n",561.291095,"j","j","right","(862, 362)",379,1,557.894381003299,-106.627041786175,"  912.92",258,4,1,1
"40",65,"left","SHINEd_Squash_Butternut.jpg","incongruent","n",437.750026,"f","j","right","(148, 362)",444,0,434.419708676074,-230.1017141134," 2503.64",102,4,0,0
"40",66,"right","SHINEd_Shark_GreatWhite.jpg","congruent","n",697.538123,"j","j","right","(862, 362)",287,1,694.274202348849,29.7527795593753,"  853.39",157,4,1,1
"40",67,"left","SHINEd_Cow.jpg","incongruent","n",587.732827,"j","j","right","(148, 362)",320,1,584.535303021624,-79.9861197678497,"  844.71",120,4,1,1
"40",68,"right","SHINEd_FloppyDisk.jpg","incongruent","m",702.800369,"f","f","left","(862, 362)",147,1,699.669241694399,35.1478189049254," 1495.88",226,4,1,1
"40",69,"right","SHINEd_edamame.jpg","congruent","n",763.326667,"j","j","right","(862, 362)",303,1,760.261936367174,95.7405135777004,"  958.02",335,4,1,1
"40",70,"left","SHINEd_beetle.jpg","incongruent","n",614.451403,"j","j","right","(148, 362)",356,1,611.453069039949,-53.0683537495246,"  957.87",175,4,0,0
"40",71,"right","SHINEd_Hippopotamus.jpg","congruent","n",633.754398,"j","j","right","(862, 362)",367,1,630.822460712724,-33.6989620767496,"  822.08",380,4,1,1
"40",72,"left","SHINEd_gazelle.jpg","incongruent","n",621.30051,"j","j","right","(148, 362)",268,1,618.434969385499,-46.0864534039746," 5709.97",428,3,0,0
"40",73,"left","SHINEd_seatAirplane.jpg","congruent","m",711.968111,"f","f","left","(148, 362)",172,1,709.168967058274,44.6475442688005,"  769.13",303,4,0,0
"40",74,"left","SHINEd_Kangaroo.jpg","incongruent","n",544.991109,"j","j","right","(148, 362)",312,1,542.258361731049,-122.263061058425," 2485.82",57,4,0,0
"40",75,"right","SHINEd_white sesame.jpg","congruent","n",660.588578,"j","j","right","(862, 362)",371,1,657.922227403824,-6.59919538564955," 1365.44",382,4,1,1
"40",76,"left","SHINEd_Bag_Camera.jpg","congruent","m",NA,"miss","f","left","(148, 362)",216,0,NA,NA," 3574.64",1,4,0,0
"40",77,"left","SHINEd_Plum.jpg","incongruent","n",709.940381,"j","j","right","(148, 362)",244,1,707.406823749374,42.8854009599005,"  877.99",451,4,1,1
"40",78,"left","SHINEd_HedgeShears.jpg","congruent","m",529.003244,"f","f","left","(148, 362)",28,1,526.536083422149,-137.985339367324," 1720.80",164,4,0,0
"40",79,"left","SHINEd_rhino.jpg","incongruent","n",522.974786,"j","j","right","(148, 362)",352,1,520.574022094924,-143.947400694549,"  920.43",168,4,0,0
"40",80,"right","SHINEd_OnionRed.jpg","congruent","n",471.80084,"f","j","right","(862, 362)",383,0,469.466472767699,-195.054950021774," 1303.61",23,4,1,1
"40",81,"right","SHINEd_Tractor_Orange.jpg","incongruent","m",NA,"miss","f","left","(862, 362)",175,0,NA,NA," 1615.97",138,4,0,0
"40",82,"right","SHINEd_organutan.jpg","congruent","n",687.389963,"j","j","right","(862, 362)",343,1,685.188389113249,20.6669663237756," 1016.28",68,4,1,1
"40",83,"left","SHINEd_Pig.jpg","incongruent","n",537.680638,"j","j","right","(148, 362)",424,1,535.545460786024,-128.975962003449,"  888.59",73,4,1,1
"40",84,"left","SHINEd_Fan_Ceiling.jpg","congruent","m",614.723229,"f","f","left","(148, 362)",48,1,612.654448458799,-51.8669743306744," 1305.21",244,4,0,0
"40",85,"right","SHINEd_Bat_Baseball.jpg","incongruent","m",NA,"miss","f","left","(862, 362)",127,0,NA,NA,"  772.97",177,4,0,0
"40",86,"right","SHINEd_Seashell_RoseMurex.jpg","congruent","n",612.284264,"j","j","right","(862, 362)",327,1,610.348276804349,-54.1731459851243," 2387.21",317,4,0,0
"40",87,"left","SHINEd_Golf_Club.jpg","congruent","m",664.500501,"f","f","left","(148, 362)",132,1,662.630910477124,-1.89051231234929,"  724.47",297,4,0,0
"40",88,"right","SHINEd_Car_Sedan.jpg","incongruent","m",828.480762,"f","f","left","(862, 362)",183,1,826.6775681499,162.156145360426,"  641.18",298,4,0,0
"40",89,"left","SHINEd_Exercise_Bike.jpg","congruent","m",664.414443,"f","f","left","(148, 362)",24,1,662.677645822674,-1.84377696679923,"  919.26",320,4,0,0
"40",90,"left","SHINEd_Pepper_Green.jpg","incongruent","n",572.169368,"j","j","right","(148, 362)",372,1,570.49896749545,-94.0224552940243," 1461.16",115,4,1,1
"40",91,"right","SHINEd_DryRack_Dishes.jpg","incongruent","m",558.343065,"f","f","left","(862, 362)",135,1,556.739061168225,-107.782361621249,"  735.07",269,4,0,0
"40",92,"left","SHINEd_DrainPlug.jpg","congruent","m",644.264017,"f","f","left","(148, 362)",140,1,642.726409841,-21.7950129484742," 1015.08",373,4,0,0
"40",93,"left","SHINEd_Scorpion.jpg","incongruent","n",494.354932,"j","j","right","(148, 362)",396,1,492.883721513775,-171.637701275699," 1280.22",443,4,1,1
"40",94,"left","SHINEd_ornament.jpg","congruent","m",657.84483,"f","f","left","(148, 362)",224,1,656.44001618655,-8.08140660292412," 1255.44",47,4,1,1
"40",95,"right","SHINEd_Bus_School.jpg","incongruent","m",662.917573,"f","f","left","(862, 362)",171,1,661.579155859325,-2.94226693014916,"  957.93",190,4,1,1
"40",96,"right","SHINEd_Binoculars.jpg","incongruent","m",593.233174,"f","f","left","(862, 362)",199,1,591.9611535321,-72.5602692573741," 2352.54",172,4,0,0
"40",97,"right","SHINEd_Caribou.jpg","congruent","n",638.00976,"j","j","right","(862, 362)",435,1,636.804136204875,-27.717286584599,"  999.77",179,4,0,0
"40",98,"left","SHINEd_alpaca_fo.jpg","incongruent","n",544.699205,"j","j","right","(148, 362)",400,1,543.55997787765,-120.961444911824,"  799.83",377,4,1,1
"40",99,"left","SHINEd_Oneholepunch.jpg","congruent","m",612.753098,"f","f","left","(148, 362)",76,1,611.680267550425,-52.841155239049," 6062.86",77,4,1,1
"40",100,"right","SHINEd_ashtray.jpg","incongruent","m",521.014837,"f","f","left","(862, 362)",227,1,520.0084032232,-144.513019566274,"  983.76",264,4,0,0
"40",101,"left","SHINEd_PassionFruit.jpg","incongruent","n",608.579709,"j","j","right","(148, 362)",452,1,607.639671895975,-56.881750893499," 1261.02",393,4,1,1
"40",102,"right","SHINEd_elbow.jpg","congruent","n",940.7705,"j","j","right","(862, 362)",263,1,939.89685956875,275.375436779276,"  851.46",453,4,1,1
"40",103,"right","SHINEd_Microwave.jpg","incongruent","m",601.252093,"f","f","left","(862, 362)",155,1,600.444849241525,-64.076573547949," 1112.60",106,4,0,0
"40",104,"left","SHINEd_Ball_Football.jpg","congruent","m",798.166106,"f","f","left","(148, 362)",128,1,797.4252589143,132.903836124826," 1021.04",139,4,0,0
"40",105,"left","SHINEd_Earrings_Dangling.jpg","congruent","m",904.247978,"j","f","left","(148, 362)",196,0,903.573527587075,239.052104797601," 1165.42",284,4,1,1
"40",106,"right","SHINEd_LightBulb_White.jpg","incongruent","m",NA,"miss","f","left","(862, 362)",47,0,NA,NA," 1168.00",400,4,1,1
"40",107,"right","SHINEd_goldfish.jpg","congruent","n",566.613616,"j","j","right","(862, 362)",275,1,566.071958932625,-98.4494638568489," 1790.27",376,4,1,1
"40",108,"right","SHINEd_Oars.jpg","incongruent","m",562.15668,"f","f","left","(862, 362)",19,1,561.6814196054,-102.840003184074,"12592.03",266,3,0,0
"40",109,"right","SHINEd_Fish_Swordfish.jpg","congruent","n",551.029952,"j","j","right","(862, 362)",331,1,550.621088278175,-113.900334511299,"  832.81",114,4,1,1
"40",110,"right","SHINEd_PaperCutter.jpg","incongruent","m",770.091605,"f","f","left","(862, 362)",31,1,769.74913795095,105.227715161476," 3765.77",103,4,1,1
"40",111,"left","SHINEd_Guitar_Acoustic.jpg","congruent","m",NA,"miss","f","left","(148, 362)",12,0,NA,NA,"  804.94",389,4,1,1
"40",112,"left","SHINEd_eggs.jpg","incongruent","n",618.217745,"j","j","right","(148, 362)",296,1,618.0080712965,-46.5133514929737,"  671.53",427,4,0,0
"40",113,"right","SHINEd_Swan.jpg","congruent","n",557.616461,"j","j","right","(862, 362)",443,1,557.473183969275,-107.048238820199,"  850.52",14,4,1,1
"40",114,"right","SHINEd_Iguana.jpg","congruent","n",560.865339,"j","j","right","(862, 362)",387,1,560.78845864205,-103.732964147424,"  616.03",202,4,1,1
"40",115,"left","SHINEd_Ginger.jpg","incongruent","n",NA,"miss","j","right","(148, 362)",236,0,NA,NA,"  928.33",260,4,1,1
"40",116,"right","SHINEd_Seahorse.jpg","congruent","n",727.780864,"j","j","right","(862, 362)",347,1,727.8367769876,63.3153541981263,"  717.47",199,4,1,1
"40",117,"right","SHINEd_Cup_Bathroom.jpg","incongruent","m",779.656349,"f","f","left","(862, 362)",51,1,779.778658660375,115.257235870901," 1006.50",386,4,1,1
"40",118,"right","SHINEd_Ferret.jpg","congruent","n",542.797346,"j","j","right","(862, 362)",239,1,542.98605233315,-121.535370456324,"  878.43",213,4,1,1
"40",119,"left","SHINEd_Camel_Bactrian.jpg","incongruent","n",562.739912,"j","j","right","(148, 362)",344,1,562.995015005925,-101.526407783549,"  814.11",345,4,1,1
"40",120,"right","SHINEd_zebra.jpg","congruent","n",487.546213,"j","j","right","(862, 362)",447,1,487.8677126787,-176.653710110774," 3522.50",16,4,1,1
"40",121,"right","SHINEd_Fence_Wooden.jpg","incongruent","m",NA,"miss","f","left","(862, 362)",163,0,NA,NA," 1891.38",440,4,0,0
"40",122,"left","SHINEd_Tie.jpg","congruent","m",607.363019,"f","f","left","(148, 362)",192,1,607.81731202425,-56.7041107652235," 1110.43",357,4,1,1
"40",123,"right","SHINEd_Playard.jpg","incongruent","m",591.620352,"f","f","left","(862, 362)",59,1,592.141041697025,-72.3803810924485," 1607.30",402,4,0,0
"40",124,"left","SHINEd_tapir copy.jpg","incongruent","n",635.754765,"j","j","right","(148, 362)",408,1,636.3418513698,-28.1795714196735," 5190.18",355,4,0,0
"40",125,"left","SHINEd_Button.jpg","congruent","m",575.937558,"f","f","left","(148, 362)",4,1,576.591041042575,-87.9303817468985,"  845.60",131,4,1,1
"40",126,"left","SHINEd_Lettuce_GreenLeaf.jpg","incongruent","n",802.265315,"j","j","right","(148, 362)",248,1,802.98519471535,138.463771925877," 1221.65",418,4,1,1
"40",127,"right","SHINEd_Eggplant.jpg","congruent","n",644.945751,"j","j","right","(862, 362)",267,1,645.732027388125,-18.7893954013484," 5184.75",7,4,1,1
"40",128,"left","SHINEd_raspberry.jpg","incongruent","n",577.067927,"j","j","right","(148, 362)",456,1,577.9206000609,-86.6008227285733,"  805.59",411,4,1,1
"40",129,"left","SHINEd_Dart.jpg","congruent","m",549.28683,"f","f","left","(148, 362)",20,1,550.205899733675,-114.315523055798," 1500.12",392,4,0,0
"40",130,"right","SHINEd_CDstack.jpg","incongruent","m",625.419728,"f","f","left","(862, 362)",15,1,626.40519440645,-38.1162283830234,"  575.21",349,4,0,0
"40",131,"right","SHINEd_Crab.jpg","congruent","n",668.366466,"j","j","right","(862, 362)",259,1,669.418329079225,4.89690628975162,"  815.71",360,4,1,1
"40",132,"right","SHINEd_alfalfa.jpg","congruent","n",872.26607,"f","j","right","(862, 362)",283,0,873.384329752,208.862906962527,"  837.71",257,4,0,0
"40",133,"left","SHINEd_housefly.jpg","incongruent","n",771.842567,"j","j","right","(148, 362)",420,1,773.027223424775,108.505800635302,"19614.84",388,4,1,1
"40",134,"left","SHINEd_CompassCardinal.jpg","congruent","m",558.260729,"f","f","left","(148, 362)",40,1,559.51178209755,-105.009640691923," 2448.50",20,4,1,1
"40",135,"right","SHINEd_KitchenCloth.jpg","incongruent","m",NA,"miss","f","left","(862, 362)",143,0,NA,NA," 1063.50",116,4,1,1
"40",136,"right","SHINEd_Staircase_Curving.jpg","incongruent","m",678.515103,"f","f","left","(862, 362)",115,1,679.8989494431,15.3775266536267," 3239.44",414,4,0,0
"40",137,"right","SHINEd_Chimpanzee.jpg","congruent","n",506.841796,"j","j","right","(862, 362)",255,1,508.292039115876,-156.229383673598,"  853.66",184,4,1,1
"40",138,"right","SHINEd_tamarinds.jpg","congruent","n",582.726071,"j","j","right","(862, 362)",451,1,584.242710788651,-80.2787120008231," 1119.10",141,4,0,0
"40",139,"left","SHINEd_blackberry.jpg","incongruent","n",635.582051,"j","j","right","(148, 362)",280,1,637.165087461426,-27.3563353280482," 1325.57",437,4,1,1
"40",140,"left","SHINEd_Light_Traffic.jpg","congruent","m",581.365007,"f","f","left","(148, 362)",180,1,583.014440134201,-81.5069826552731," 2349.40",110,4,0,0
"40",141,"right","SHINEd_birdie.jpg","incongruent","m",577.278358,"f","f","left","(862, 362)",131,1,578.994187806976,-85.5272349824981," 5397.26",166,4,0,0
"40",142,"right","SHINEd_Puffin.jpg","congruent","n",487.512297,"j","j","right","(862, 362)",231,1,489.294523479751,-175.226899309723,"  831.33",8,4,0,0
"40",143,"right","SHINEd_Ship_Model.jpg","incongruent","m",545.160856,"f","f","left","(862, 362)",83,1,547.009479152526,-117.511943636948," 1046.69",214,4,1,1
"40",144,"right","SHINEd_tree.jpg","congruent","n",459.758395,"f","j","right","(862, 362)",375,0,461.673414825301,-202.848007964173," 1071.54",81,4,1,1
"40",145,"left","SHINEd_SpiderWeb.jpg","incongruent","n",648.715041,"f","j","right","(148, 362)",348,0,650.696457498076,-13.824965291398,"  971.65",182,4,1,1
"40",146,"left","SHINEd_Cucumber.jpg","incongruent","n",NA,"miss","j","right","(148, 362)",364,0,NA,NA," 2483.34",324,4,1,1
"40",147,"right","SHINEd_Panda.jpg","congruent","n",558.293038,"j","j","right","(862, 362)",251,1,560.407247843626,-104.114174945848,"  664.21",210,4,1,1
"40",148,"right","SHINEd_Barbecue_Gas.jpg","incongruent","m",617.802234,"f","f","left","(862, 362)",159,1,619.982840516401,-44.538582273073," 3263.06",229,4,0,0
"40",149,"left","SHINEd_Boombox.jpg","congruent","m",741.183996,"f","f","left","(148, 362)",92,1,743.430999189176,78.909576399702," 1575.36",85,4,1,1
"40",150,"right","SHINEd_Olives.jpg","congruent","n",520.566818,"j","j","right","(862, 362)",419,1,522.880217861951,-141.641204927523,"  774.46",270,4,0,0
"40",151,"right","SHINEd_feather.jpg","congruent","n",727.599037,"j","j","right","(862, 362)",415,1,729.978833534726,65.4574107452521," 3391.84",150,4,1,1
"40",152,"left","SHINEd_Pear_Yellow.jpg","incongruent","n",745.940978,"j","j","right","(148, 362)",416,1,748.387171207501,83.8657484180271,"  893.18",211,4,0,0
"40",153,"right","SHINEd_paddle ball.jpg","incongruent","m",NA,"miss","f","left","(862, 362)",27,0,NA,NA,"  795.79",15,4,0,0
"40",154,"right","SHINEd_Flower_Daisy.jpg","congruent","n",489.329836,"j","j","right","(862, 362)",351,1,491.908822553051,-172.612600236423,"  879.80",195,4,1,1
"40",155,"right","SHINEd_turkey.jpg","congruent","n",531.984845,"j","j","right","(862, 362)",391,1,534.630228225826,-129.891194563648," 1792.08",34,4,0,0
"40",156,"right","SHINEd_mapleleaf.jpg","congruent","n",807.23893,"j","j","right","(862, 362)",335,1,809.950709898601,145.429287109127," 1143.56",3,4,1,1
"40",157,"right","SHINEd_Box_GiftTopView.jpg","incongruent","m",812.230355,"f","f","left","(862, 362)",219,1,815.008531571376,150.487108781902," 1456.58",90,4,1,1
"40",158,"right","SHINEd_Dress_Blue.jpg","incongruent","m",NA,"miss","f","left","(862, 362)",3,0,NA,NA," 1021.28",326,4,1,1
"40",159,"left","SHINEd_Glasses_Reading.jpg","congruent","m",642.464012,"f","f","left","(148, 362)",200,1,645.374981916926,-19.1464408725477,"  861.65",397,4,1,1
"40",160,"left","SHINEd_Blackboard.jpg","congruent","m",580.91527,"f","f","left","(148, 362)",72,1,583.892636589701,-80.6287861997727," 1333.22",361,4,1,1
"40",161,"left","SHINEd_Lion.jpg","incongruent","n",592.448514,"j","j","right","(148, 362)",316,1,595.492277262476,-69.0291455269976,"  742.52",207,4,1,1
"40",162,"right","SHINEd_bat.jpg","congruent","n",548.030296,"j","j","right","(862, 362)",403,1,551.140455935251,-113.380966854223," 1023.10",201,4,1,1
"40",163,"right","SHINEd_Bandage_Adhesive.jpg","incongruent","m",887.803113,"f","f","left","(862, 362)",107,1,890.979669608026,226.458246818552,"  933.46",300,4,1,1
"40",164,"left","SHINEd_RibbonSpool.jpg","congruent","m",580.609635,"f","f","left","(148, 362)",80,1,583.852588280801,-80.6688345086726,"  968.08",250,4,1,1
"40",165,"left","SHINEd_fig.jpg","incongruent","n",633.54287,"j","j","right","(148, 362)",412,1,636.852219953576,-27.6692028358976,"  835.24",124,4,1,1
"40",166,"right","SHINEd_WateringCan_PlasticDarkGreen.jpg","incongruent","m",725.247832,"f","f","left","(862, 362)",215,1,728.623578626351,64.1021558368774," 2903.27",282,4,0,0
"40",167,"right","SHINEd_Owl.jpg","congruent","n",NA,"miss","j","right","(862, 362)",407,0,NA,NA,"  886.71",192,4,1,1
"40",168,"left","SHINEd_Clam.jpg","incongruent","n",700.462519,"j","j","right","(148, 362)",340,1,703.971058971901,39.4496361824275," 1271.58",104,4,1,1
"40",169,"left","SHINEd_LifeJacket_BlueYellow.jpg","congruent","m",710.947561,"f","f","left","(148, 362)",16,1,714.522497644676,50.0010748552024,"  982.17",208,4,1,1
"40",170,"left","SHINEd_Card_TwoSpade.jpg","congruent","m",529.652328,"f","f","left","(148, 362)",88,1,533.293661317451,-131.227761472022,"  839.89",351,4,1,1
"40",171,"left","SHINEd_Hammock.jpg","congruent","m",534.052299,"f","f","left","(148, 362)",208,1,537.760028990226,-126.761393799248," 1930.54",148,4,0,0
"40",172,"right","SHINEd_SpongeScrubbing.jpg","incongruent","m",928.767662,"j","f","left","(862, 362)",139,0,932.541788663001,268.020365873528,"  941.62",162,4,1,1
"40",173,"right","SHINEd_aloe.jpg","congruent","n",779.379586,"j","j","right","(862, 362)",299,1,783.220109335776,118.698686546303,"  759.16",398,4,0,0
"40",174,"left","SHINEd_sloth.jpg","incongruent","n",783.828177,"j","j","right","(148, 362)",304,1,787.735097008551,123.213674219078," 1317.34",339,4,0,0
"40",175,"left","SHINEd_SnowGlobe.jpg","congruent","m",620.010073,"f","f","left","(148, 362)",84,1,623.983389681326,-40.5380331081473," 1336.42",49,4,1,1
"40",176,"right","SHINEd_sunflowers.jpg","congruent","n",640.590682,"j","j","right","(862, 362)",395,1,644.630395354101,-19.8910274353723," 1188.70",371,4,1,1
"40",177,"left","SHINEd_Hazelnut.jpg","incongruent","n",691.750875,"j","j","right","(148, 362)",252,1,695.856985026876,31.3355622374026," 2803.45",105,4,1,1
"40",178,"right","SHINEd_puffer-fish.jpg","congruent","n",645.780503,"j","j","right","(862, 362)",339,1,649.953009699651,-14.5684130898224,"  869.81",341,4,1,1
"40",179,"left","SHINEd_bullrush.jpg","incongruent","n",650.363015,"f","j","right","(148, 362)",324,0,654.601918372426,-9.91950441704727," 1198.08",158,4,1,1
"40",180,"left","SHINEd_DoubleBass.jpg","congruent","m",836.971812,"f","f","left","(148, 362)",8,1,841.277112045201,176.755689255728," 1177.08",56,4,0,0
"40",181,"right","SHINEd_moth.jpg","congruent","n",768.217458,"j","j","right","(862, 362)",427,1,772.589154717976,108.067731928503," 1768.02",43,4,1,1
"40",182,"right","SHINEd_whistle.jpg","incongruent","m",540.838537,"f","f","left","(862, 362)",79,1,545.276630390752,-119.244792398722," 9934.54",322,4,1,1
"40",183,"left","SHINEd_SpinningWheel.jpg","congruent","m",681.146273,"f","f","left","(148, 362)",124,1,685.650763063526,21.1293402740527,"  704.80",286,4,0,0
"40",184,"left","SHINEd_Squid_Pink.jpg","incongruent","n",708.452152,"j","j","right","(148, 362)",336,1,713.023038736301,48.5016159468278," 1375.45",352,4,1,1
"40",185,"right","SHINEd_Nuts_Peanuts.jpg","congruent","n",705.302145,"j","j","right","(862, 362)",235,1,709.939428409077,45.4180056196028," 1005.92",236,4,1,1
"40",186,"right","SHINEd_Razor.jpg","incongruent","m",667.212055,"f","f","left","(862, 362)",119,1,671.915735081851,7.39431229237782,"  968.46",205,4,0,0
"40",187,"right","SHINEd_pistachios-.jpg","congruent","n",654.915229,"j","j","right","(862, 362)",411,1,659.685305754627,-4.83611703484717,"  998.82",254,4,0,0
"40",188,"left","SHINEd_TigerWhite.jpg","incongruent","n",946.471623,"j","j","right","(148, 362)",440,1,951.308096427402,286.786673637928," 1125.70",314,4,0,0
"40",189,"right","SHINEd_KeyHook_Empty.jpg","incongruent","m",NA,"miss","f","left","(862, 362)",223,0,NA,NA," 1213.21",156,4,1,1
"40",190,"left","SHINEd_Fridge.jpg","congruent","m",635.409,"f","f","left","(148, 362)",44,1,640.378266772952,-24.1431560165221," 1591.57",151,3,0,0
"40",191,"right","SHINEd_Stingray.jpg","congruent","n",854.326288,"j","j","right","(862, 362)",315,1,859.361951445727,194.840528656253," 2325.25",93,4,0,0
"40",192,"left","SHINEd_Cougar.jpg","incongruent","n",722.13704,"j","j","right","(148, 362)",276,1,727.239100118502,62.7176773290279," 1001.09",142,4,0,0
"40",193,"right","SHINEd_LetterMail.jpg","incongruent","m",565.690787,"f","f","left","(862, 362)",75,1,570.859243791277,-93.662178998197,"  697.03",304,4,0,0
"40",194,"left","SHINEd_Lighter_Yellow.jpg","congruent","m",873.253778,"f","f","left","(148, 362)",104,1,878.488631464052,213.967208674578," 1160.07",292,4,0,0
"40",195,"right","SHINEd_Light_Siren.jpg","incongruent","m",772.723061,"f","f","left","(862, 362)",95,1,778.024311136827,113.502888347353," 1158.88",13,4,1,1
"40",196,"left","SHINEd_Lock_Combination.jpg","congruent","m",497.215652,"f","f","left","(148, 362)",64,1,502.583298809602,-161.938123979872,"  695.07",240,4,0,0
"40",197,"right","SHINEd_tooth.jpg","congruent","n",635.953856,"j","j","right","(862, 362)",363,1,641.387899482377,-23.1335233070969,"  919.33",29,4,1,1
"40",198,"left","SHINEd_Hat_Explorer.jpg","congruent","m",574.805809,"f","f","left","(148, 362)",188,1,580.306249155152,-84.2151736343219," 1727.23",159,4,1,1
"40",199,"left","SHINEd_Dill.jpg","incongruent","n",635.554772,"j","j","right","(148, 362)",256,1,641.121608827927,-23.3998139615469," 1223.37",323,4,0,0
"40",200,"right","SHINEd_bear.jpg","congruent","n",709.803748,"j","j","right","(862, 362)",271,1,715.436981500702,50.9155587112282,"  758.21",423,4,1,1
"40",201,"left","SHINEd_BookShelf.jpg","congruent","m",633.382514,"f","f","left","(148, 362)",204,1,639.082144173477,-25.4392786159968," 1077.85",127,4,1,1
"40",202,"right","SHINEd_Stapler_Regular.jpg","incongruent","m",NA,"miss","f","left","(862, 362)",43,0,NA,NA,"  972.17",378,4,0,0
"40",203,"left","SHINEd_Hammer.jpg","congruent","m",689.817609,"f","f","left","(148, 362)",36,1,695.650032519027,31.1286097295532,"  764.48",433,4,0,0
"40",204,"left","SHINEd_Boots_KneeHigh.jpg","congruent","m",531.897968,"f","f","left","(148, 362)",152,1,537.796788191802,-126.724634597672," 4351.35",364,4,1,1
"40",205,"left","SHINEd_groundhog.jpg","incongruent","n",496.009149,"j","j","right","(148, 362)",404,1,501.974365864577,-162.547056924897," 1020.67",435,4,1,1
"40",206,"left","SHINEd_HorseshoeCrab.jpg","incongruent","n",571.709664,"j","j","right","(148, 362)",260,1,577.741277537352,-86.7801452521217,"  907.51",421,4,1,1
"40",207,"left","SHINEd_Bolt.jpg","congruent","m",743.795114,"f","f","left","(148, 362)",32,1,749.893124210127,85.3717014206533," 1093.71",409,4,1,1
"40",208,"left","SHINEd_bee.jpg","incongruent","n",548.805175,"j","j","right","(148, 362)",380,1,554.969581882902,-109.551840906572," 1200.35",54,4,1,1
"40",209,"left","SHINEd_Bird_CanadianGoose.jpg","incongruent","n",670.751993,"j","j","right","(148, 362)",388,1,676.982796555677,12.4613737662033," 1634.80",80,4,1,1
"40",210,"left","SHINEd_PencilCase.jpg","congruent","m",787.697713,"f","f","left","(148, 362)",68,1,793.994913228452,129.473490438978," 1287.71",445,4,0,0
"40",211,"left","SHINEd_CinderBlock.jpg","congruent","m",959.000717,"j","f","left","(148, 362)",108,0,965.364313901227,300.842891111753,"  795.83",368,4,1,1
"40",212,"right","SHINEd_Organ.jpg","incongruent","m",868.308168,"f","f","left","(862, 362)",7,1,874.738161574002,210.216738784528," 1371.51",310,4,1,1
"40",213,"right","SHINEd_Shoes_Pumps.jpg","incongruent","m",870.244141,"f","f","left","(862, 362)",151,1,876.740531246777,212.219108457303," 1373.57",26,4,1,1
"40",214,"left","SHINEd_Box_Package.jpg","congruent","m",697.848144,"f","f","left","(148, 362)",220,1,704.410930919552,39.8895081300785," 1328.23",19,4,1,1
"40",215,"left","SHINEd_CoffeeBeans.jpg","incongruent","n",540.96741,"j","j","right","(148, 362)",332,1,547.596593592327,-116.924829197147,"  895.01",243,4,1,1
"40",216,"left","SHINEd_Celery.jpg","incongruent","n",728.970451,"j","j","right","(148, 362)",272,1,735.666031265102,71.1446084756285,"  999.21",169,4,1,1
"40",217,"left","SHINEd_Cologne.jpg","congruent","m",644.724059,"f","f","left","(148, 362)",116,1,651.486035937877,-13.0353868515965," 1276.22",263,4,1,1
"40",218,"right","SHINEd_Notepad.jpg","incongruent","m",655.567484,"f","f","left","(862, 362)",71,1,662.395857610652,-2.12556517882142," 1087.29",363,4,1,1
"40",219,"right","SHINEd_Belt.jpg","incongruent","m",574.025631,"f","f","left","(862, 362)",195,1,580.920401283427,-83.6010215060465," 2811.56",327,4,0,0
"40",220,"right","SHINEd_Peach.jpg","congruent","n",585.093527,"j","j","right","(862, 362)",323,1,592.054693956202,-72.4667288332714," 3602.64",134,4,1,1
"40",221,"left","SHINEd_Tape_Scotch.jpg","congruent","m",740.892428,"f","f","left","(148, 362)",228,1,747.919991628977,83.3985688395036," 1319.33",328,4,0,0
"40",222,"left","SHINEd_Bus_DoubleDecker.jpg","congruent","m",486.152052,"j","f","left","(148, 362)",184,0,493.246012301752,-171.275410487721,"  742.07",289,4,0,0
"40",223,"right","SHINEd_tentacle.jpg","congruent","n",505.493949,"j","j","right","(862, 362)",247,1,512.654305974527,-151.867116814946,"  919.28",107,4,1,1
"40",224,"left","SHINEd_Leaf_Green.jpg","incongruent","n",862.037606,"j","j","right","(148, 362)",448,1,869.264359647302,204.742936857829,"12287.85",401,3,1,1
"40",225,"left","SHINEd_dove.jpg","incongruent","n",688.639506,"j","j","right","(148, 362)",308,1,695.932656320077,31.4112335306037,"  999.55",113,4,1,1
"40",226,"right","SHINEd_Coral.jpg","congruent","n",837.447679,"j","j","right","(862, 362)",455,1,844.807225992852,180.285803203379," 1246.49",149,4,1,1
"40",227,"right","SHINEd_FireHydrant.jpg","incongruent","m",722.427411,"f","f","left","(862, 362)",167,1,729.853354665627,65.3319318761537," 7896.37",432,4,1,1
"40",228,"right","SHINEd_Snowboard.jpg","incongruent","m",679.10344,"f","f","left","(862, 362)",23,1,686.595780338403,22.0743575489287,"  963.91",420,4,1,1
