"participant","trial_index","screenposition","stimulus","trialtype","classifyenc","rt","response","responsecorrect","responsecorrect_side","screenlocation","stimnum","acc","rtResidual","rtResidualC","rt_rec","trialno_rec","ratingConfidence","acc_rec","memoryHits.hc"
"41",1,"right","SHINEd_greenapple.jpg","incongruent","n",NA,"miss","f","left","(862, 362)",410,0,NA,NA," 1248.73",68,4,0,0
"41",2,"left","SHINEd_cheetah.jpg","congruent","n",733.649164,"f","f","left","(148, 362)",245,1,744.052152354516,119.150216615777," 1273.11",199,2,1,NA
"41",3,"left","SHINEd_Giraffe.jpg","congruent","n",537.960264,"f","f","left","(148, 362)",381,1,548.271585155391,-76.630350583348," 1367.44",236,3,1,1
"41",4,"right","SHINEd_raccoon.jpg","incongruent","n",582.02174,"f","f","left","(862, 362)",262,1,592.241393956268,-32.6605417824706," 1082.49",26,4,1,1
"41",5,"right","SHINEd_airpump.jpg","congruent","m",759.811799,"j","j","right","(862, 362)",114,1,769.939785757145,145.037850018406," 1134.66",102,3,0,0
"41",6,"right","SHINEd_BearPolar.jpg","incongruent","n",572.378065,"f","f","left","(862, 362)",386,1,582.414384558022,-42.4875511807164," 2013.31",438,3,1,1
"41",7,"right","SHINEd_ClothCoaster.jpg","congruent","m",743.807737,"j","j","right","(862, 362)",142,1,753.752389358899,128.850453620161," 5266.57",222,2,0,0
"41",8,"left","SHINEd_Vase_Decorative copy.jpg","incongruent","m",579.509857,"f","j","right","(148, 362)",221,0,589.362842159777,-35.5390935789622," 1030.58",403,4,1,1
"41",9,"right","SHINEd_accordion.jpg","congruent","m",792.982467,"f","j","right","(862, 362)",10,0,802.743784960654,177.841849221915," 1269.85",413,4,0,0
"41",10,"left","SHINEd_Camera_Video.jpg","incongruent","m",788.006649,"j","j","right","(148, 362)",97,1,797.676299761531,172.774364022792," 3616.44",14,2,0,0
"41",11,"left","SHINEd_Knee.jpg","congruent","n",697.601703,"j","f","left","(148, 362)",309,0,707.179686562408,82.2777508236692," 1292.03",265,4,1,1
"41",12,"left","SHINEd_Saw.jpg","incongruent","m",717.647835,"j","j","right","(148, 362)",33,1,727.134151363285,102.232215624546," 1815.23",80,2,0,0
"41",13,"left","SHINEd_whale.jpg","congruent","n",585.912979,"f","f","left","(148, 362)",421,1,595.307628164162,-29.5943075745767," 1414.18",263,3,1,1
"41",14,"right","SHINEd_Grape.jpg","incongruent","n",958.566162,"f","f","left","(862, 362)",274,1,967.869143965039,342.9672082263," 1687.01",41,3,1,1
"41",15,"right","SHINEd_Nail.jpg","congruent","m",569.606274,"j","j","right","(862, 362)",38,1,578.817588765916,-46.0843469728224,"  967.97",258,4,1,1
"41",16,"left","SHINEd_HairDryer.jpg","incongruent","m",589.320008,"j","j","right","(148, 362)",45,1,598.439655566793,-26.4622801719453," 3591.29",2,3,0,0
"41",17,"right","SHINEd_ChalkboardEraser.jpg","congruent","m",505.137813,"j","j","right","(862, 362)",62,1,514.165793367671,-110.736142371068," 1188.02",144,4,1,1
"41",18,"right","SHINEd_Cherry.jpg","incongruent","n",534.470551,"f","f","left","(862, 362)",258,1,543.406864168548,-81.4950715701911,"  758.36",392,4,1,1
"41",19,"right","SHINEd_Starfish.jpg","incongruent","n",724.194791,"f","f","left","(862, 362)",378,1,733.039436969425,108.137501230686," 1111.28",251,4,1,1
"41",20,"left","SHINEd_artichoke.jpg","congruent","n",799.264547,"f","f","left","(148, 362)",453,1,808.017525770302,183.115590031563," 2033.82",168,2,1,NA
"41",21,"left","SHINEd_BasketballHoop.jpg","incongruent","m",547.440662,"j","j","right","(148, 362)",129,1,556.101973571179,-68.7999621675598," 1553.25",30,4,1,1
"41",22,"right","SHINEd_durian.jpg","incongruent","n",575.618195,"f","f","left","(862, 362)",374,1,584.187839372056,-40.7140963666826," 1329.63",78,4,1,1
"41",23,"right","SHINEd_Ball_Bowling.jpg","congruent","m",890.580159,"f","j","right","(862, 362)",134,0,899.058136172933,274.156200434194," 1358.72",125,4,0,0
"41",24,"right","SHINEd_Lips_Real.jpg","incongruent","n",800.059248,"j","f","left","(862, 362)",390,0,808.44555797381,183.543622235072," 1344.18",83,4,1,1
"41",25,"left","SHINEd_Broccoli.jpg","congruent","n",724.035472,"f","f","left","(148, 362)",253,1,732.330114774687,107.428179035949," 2526.41",94,1,1,NA
"41",26,"right","SHINEd_scallion.jpg","incongruent","n",745.460267,"f","f","left","(862, 362)",314,1,753.663242575565,128.761306836826," 1032.58",242,4,1,1
"41",27,"left","SHINEd_Fish_Rockbass.jpg","congruent","n",700.810118,"f","f","left","(148, 362)",341,1,708.921426376442,84.0194906377029," 1098.04",391,4,1,1
"41",28,"left","SHINEd_Elephant.jpg","congruent","n",730.449267,"f","f","left","(148, 362)",349,1,738.468908177319,113.56697243858," 1467.53",131,4,0,0
"41",29,"right","SHINEd_rabbitt.jpg","incongruent","n",621.265014,"f","f","left","(862, 362)",350,1,629.192987978196,4.29105223945707," 2608.58",349,3,0,0
"41",30,"right","SHINEd_Scooter.jpg","congruent","m",552.131942,"j","j","right","(862, 362)",174,1,559.968248779073,-64.9336869596658," 3046.56",411,3,1,1
"41",31,"left","SHINEd_BicycleChain.jpg","incongruent","m",556.509607,"j","j","right","(148, 362)",17,1,564.25424657995,-60.6476891587887," 1174.15",248,4,0,0
"41",32,"left","SHINEd_MusicSheet.jpg","incongruent","m",457.672584,"j","j","right","(148, 362)",13,1,465.325556380827,-159.576379357912," 1363.62",304,4,1,1
"41",33,"left","SHINEd_pumpkinseeds-.jpg","congruent","n",532.697541,"f","f","left","(148, 362)",237,1,540.258846181704,-84.6430895570344,"  893.25",450,4,0,0
"41",34,"left","SHINEd_Cannon.jpg","incongruent","m",530.211313,"j","j","right","(148, 362)",61,1,537.680950982581,-87.2209847561573," 2246.90",22,3,1,1
"41",35,"left","SHINEd_donkey.jpg","congruent","n",519.960601,"f","f","left","(148, 362)",409,1,527.338571783459,-97.5633639552802,"  792.64",426,4,0,0
"41",36,"left","SHINEd_FileDivider.jpg","incongruent","m",516.319009,"j","j","right","(148, 362)",69,1,523.605312584336,-101.296623154403," 1529.11",316,2,1,NA
"41",37,"left","SHINEd_rhino horn.jpg","congruent","n",687.69194,"j","f","left","(148, 362)",249,0,694.886576385213,69.984640646474," 2872.92",36,2,1,NA
"41",38,"left","SHINEd_Magnifying_Glass.jpg","incongruent","m",482.953146,"j","j","right","(148, 362)",105,1,490.05611518609,-134.845820552649," 3144.81",285,3,0,0
"41",39,"left","SHINEd_Lilypad.jpg","congruent","n",511.243882,"f","f","left","(148, 362)",413,1,518.255183986967,-106.646751751772," 1007.03",246,4,1,1
"41",40,"right","SHINEd_Bowl_Fruits.jpg","incongruent","n",570.555324,"f","f","left","(862, 362)",434,1,577.474958787844,-47.4269769508946," 1321.40",399,4,1,1
"41",41,"right","SHINEd_Heater_Outdoor.jpg","congruent","m",622.840953,"j","j","right","(862, 362)",170,1,629.668920588721,4.76698484998246," 1632.80",402,4,0,0
"41",42,"right","SHINEd_treestump.jpg","incongruent","n",516.961028,"f","f","left","(862, 362)",414,1,523.697328389598,-101.20460734914," 1235.21",207,3,1,1
"41",43,"left","SHINEd_Collards.jpg","congruent","n",607.081315,"f","f","left","(148, 362)",445,1,613.725948190475,-11.1759875482633," 1583.03",65,4,1,1
"41",44,"right","SHINEd_honeydew.jpg","incongruent","n",NA,"miss","f","left","(862, 362)",330,0,NA,NA," 3109.70",123,1,1,NA
"41",45,"left","SHINEd_Ruler_Wooden.jpg","incongruent","m",480.155134,"j","j","right","(148, 362)",73,1,486.61643279223,-138.285502946509," 1095.79",164,3,1,1
"41",46,"right","SHINEd_RollerBlade.jpg","congruent","m",787.997518,"j","j","right","(862, 362)",178,1,794.367149593107,169.465213854368,"  800.77",415,4,0,0
"41",47,"right","SHINEd_hyena.jpg","incongruent","n",782.962977,"f","f","left","(862, 362)",422,1,789.240941393984,164.339005655245," 1504.28",454,3,1,1
"41",48,"right","SHINEd_avocado.jpg","incongruent","n",739.294792,"f","f","left","(862, 362)",394,1,745.481089194861,120.579153456122," 1239.09",294,4,1,1
"41",49,"right","SHINEd_Kite_Rainbow.jpg","congruent","m",583.152482,"j","j","right","(862, 362)",78,1,589.247111995738,-35.6548237430007," 2917.33",52,3,1,1
"41",50,"left","SHINEd_Escalator.jpg","incongruent","m",597.456434,"j","j","right","(148, 362)",177,1,603.459396796615,-21.4425389421236,"  936.40",303,4,0,0
"41",51,"left","SHINEd_dinosaur fossil.jpg","congruent","n",545.113148,"f","f","left","(148, 362)",377,1,551.024443597492,-73.8774921412464," 1285.54",406,3,1,1
"41",52,"right","SHINEd_Cheesegrater_Handheld.jpg","congruent","m",604.341964,"j","j","right","(862, 362)",162,1,610.161592398369,-14.7403433403694," 1687.97",197,3,1,1
"41",53,"right","SHINEd_Nuts_Pecan.jpg","incongruent","n",551.509356,"f","f","left","(862, 362)",246,1,557.237317199246,-67.6646185394922," 1564.15",296,3,0,0
"41",54,"right","SHINEd_Briefcase_Leather.jpg","congruent","m",570.118116,"j","j","right","(862, 362)",210,1,575.754410000124,-49.1475257386151," 2430.08",300,3,1,1
"41",55,"left","SHINEd_RecordPlayer.jpg","incongruent","m",621.412009,"j","j","right","(148, 362)",149,1,626.956635801001,2.054700062262,"  853.71",422,4,0,0
"41",56,"right","SHINEd_Radish.jpg","incongruent","n",633.345446,"f","f","left","(862, 362)",242,1,638.798405601878,13.8964698631391," 1135.00",367,4,1,1
"41",57,"left","SHINEd_Paw.jpg","congruent","n",595.731592,"f","f","left","(148, 362)",301,1,601.092884402755,-23.8090513359838,"  989.08",113,4,1,1
"41",58,"left","SHINEd_Colander.jpg","incongruent","m",527.730586,"j","j","right","(148, 362)",41,1,533.000211203632,-91.9017245351067," 1571.33",4,4,1,1
"41",59,"left","SHINEd_worm.jpg","congruent","n",491.203535,"j","f","left","(148, 362)",389,0,496.381493004509,-128.52044273423," 1221.08",238,4,1,1
"41",60,"right","SHINEd_Lynx.jpg","incongruent","n",721.104603,"f","f","left","(862, 362)",438,1,726.190893805386,101.288958066648," 1151.86",119,4,0,0
"41",61,"left","SHINEd_ShoppingCart.jpg","incongruent","m",581.149297,"j","j","right","(148, 362)",109,1,586.143920606263,-38.7580151324753," 2735.69",139,2,1,NA
"41",62,"right","SHINEd_Mirror_Makeup.jpg","congruent","m",894.976224,"j","j","right","(862, 362)",122,1,899.879180407141,274.977244668402,"  902.53",245,4,1,1
"41",63,"left","SHINEd_Gum_Pack.jpg","incongruent","m",548.850732,"j","j","right","(148, 362)",77,1,553.662021208018,-71.2399145307211," 1190.35",191,4,1,1
"41",64,"right","SHINEd_Lipstick.jpg","congruent","m",616.217766,"j","j","right","(862, 362)",198,1,620.937388008895,-3.96454772984403," 1381.25",221,4,1,1
"41",65,"right","SHINEd_fox.jpg","incongruent","n",491.331492,"f","f","left","(862, 362)",334,1,495.959446809772,-128.942488928967," 1144.40",379,4,1,1
"41",66,"right","SHINEd_Slippers.jpg","congruent","m",NA,"miss","j","right","(862, 362)",154,0,NA,NA," 2182.30",224,3,0,0
"41",67,"left","SHINEd_fountain.jpg","incongruent","m",477.431938,"j","j","right","(148, 362)",169,1,481.876558411526,-143.025377327213," 2148.99",281,4,0,0
"41",68,"right","SHINEd_lotusroot.jpg","incongruent","n",658.602909,"f","f","left","(862, 362)",298,1,662.955862212403,38.0539264736644," 3262.70",81,3,0,0
"41",69,"right","SHINEd_Jacket_Suit.jpg","congruent","m",733.069584,"j","j","right","(862, 362)",2,1,737.33087001328,112.428934274542," 1049.75",233,4,1,1
"41",70,"left","SHINEd_Desk_School.jpg","incongruent","m",NA,"miss","j","right","(148, 362)",201,0,NA,NA," 1060.72",330,4,0,0
"41",71,"right","SHINEd_Hourglass.jpg","congruent","m",599.09346,"j","j","right","(862, 362)",110,1,603.171411615035,-21.7305241237042," 1680.33",301,3,1,1
"41",72,"left","SHINEd_Gametable_AirHockey.jpg","incongruent","m",552.914507,"j","j","right","(148, 362)",85,1,556.900791415912,-68.0011443228272," 1236.58",377,3,0,0
"41",73,"right","SHINEd_Box_Notepaper.jpg","congruent","m",918.525737,"j","j","right","(862, 362)",70,1,922.420354216789,297.51841847805," 1127.11",210,4,1,1
"41",74,"right","SHINEd_Goat.jpg","incongruent","n",515.889554,"f","f","left","(862, 362)",322,1,519.692504017666,-105.209431721073," 1036.29",433,4,0,0
"41",75,"left","SHINEd_horse.jpg","congruent","n",494.593605,"f","f","left","(148, 362)",269,1,498.304887818543,-126.597047920196," 1582.52",110,4,0,0
"41",76,"left","SHINEd_Corn.jpg","congruent","n",540.571155,"f","f","left","(148, 362)",337,1,544.19077061942,-80.7111651193187," 1950.32",249,4,1,1
"41",77,"right","SHINEd_skeleton-lizard.jpg","incongruent","n",617.29651,"f","f","left","(862, 362)",250,1,620.824458420297,-4.07747731844157," 1495.68",185,4,1,1
"41",78,"left","SHINEd_okapi.jpg","congruent","n",540.175896,"f","f","left","(148, 362)",425,1,543.612177221174,-81.2897585175645," 1171.59",151,4,0,0
"41",79,"right","SHINEd_skunk.jpg","incongruent","n",799.523877,"f","f","left","(862, 362)",290,1,802.868491022051,177.966555283313," 1052.94",106,3,0,0
"41",80,"right","SHINEd_Bugle.jpg","congruent","m",572.717681,"j","j","right","(862, 362)",14,1,575.970627822928,-48.9313079158103," 1352.25",11,4,1,1
"41",81,"right","SHINEd_antlers.jpg","incongruent","n",592.761658,"f","f","left","(862, 362)",418,1,595.922937623806,-28.9789981149331," 1268.20",208,4,1,1
"41",82,"right","SHINEd_couch.jpg","congruent","m",468.839606,"f","j","right","(862, 362)",202,0,471.909218424683,-152.992717314056," 1877.81",428,3,1,1
"41",83,"left","SHINEd_Gloves_WhiteKnit.jpg","incongruent","m",610.197865,"f","j","right","(148, 362)",197,0,613.17581022556,-11.7261255131789," 2217.84",409,4,0,0
"41",84,"left","SHINEd_Bird_Parrot.jpg","congruent","n",655.474816,"f","f","left","(148, 362)",233,1,658.361094026437,33.4591582876982,"  983.56",325,4,0,0
"41",85,"left","SHINEd_Pants_Firefighter.jpg","incongruent","m",818.266189,"j","j","right","(148, 362)",1,1,821.060799827314,196.158864088575," 1725.21",200,4,0,0
"41",86,"left","SHINEd_koala.jpg","congruent","n",486.325492,"f","f","left","(148, 362)",365,1,489.028435628191,-135.873500110548," 1463.82",100,3,0,0
"41",87,"right","SHINEd_PictureFrame.jpg","congruent","m",650.896277,"j","j","right","(862, 362)",222,1,653.507553429068,28.6056176903296," 2884.24",376,2,1,NA
"41",88,"right","SHINEd_Nuts_Walnut.jpg","incongruent","n",542.818804,"f","f","left","(862, 362)",446,1,545.338413229945,-79.5635225087934," 1069.41",132,4,0,0
"41",89,"left","SHINEd_Cloud.jpg","congruent","n",652.025299,"f","f","left","(148, 362)",385,1,654.453241030822,29.5513052920838," 1358.83",16,4,1,1
"41",90,"left","SHINEd_DoorKnob.jpg","incongruent","m",585.855501,"j","j","right","(148, 362)",53,1,588.1917758317,-36.7101599070391," 1569.47",356,4,1,1
"41",91,"right","SHINEd_ladybug.jpg","incongruent","n",637.658074,"f","f","left","(862, 362)",238,1,639.902681632577,15.000745893838," 2725.11",398,3,1,1
"41",92,"right","SHINEd_Boardgame_Chess.jpg","congruent","m",731.271383,"j","j","right","(862, 362)",86,1,733.424323433454,108.522387694715," 1093.67",189,4,1,1
"41",93,"right","SHINEd_eucalyptus.jpg","incongruent","n",775.317286,"f","f","left","(862, 362)",282,1,777.378559234331,152.476623495592," 1084.21",204,3,1,1
"41",94,"right","SHINEd_Helmet_Bicycle.jpg","congruent","m",758.791533,"j","j","right","(862, 362)",18,1,760.761139035208,135.859203296469," 1430.69",170,4,1,1
"41",95,"left","SHINEd_Makeup_Compact.jpg","incongruent","m",618.820624,"f","j","right","(148, 362)",121,0,620.698562836085,-4.20337290265365,"  936.08",85,4,1,1
"41",96,"right","SHINEd_pomegrant.jpg","incongruent","n",534.457035,"f","f","left","(862, 362)",354,1,536.243306636962,-88.6586291017765," 1425.40",395,4,0,0
"41",97,"right","SHINEd_Ball_Basketball.jpg","congruent","m",513.677828,"j","j","right","(862, 362)",130,1,515.372432437839,-109.529503300899," 1205.71",362,4,1,1
"41",98,"right","SHINEd_mushroom_other.jpg","incongruent","n",630.595251,"f","f","left","(862, 362)",426,1,632.198188238716,7.29625249997769," 1174.70",435,4,1,1
"41",99,"right","SHINEd_Car_Vintage.jpg","congruent","m",579.257206,"j","j","right","(862, 362)",186,1,580.768476039594,-44.1334596991452," 1198.66",424,4,0,0
"41",100,"right","SHINEd_wheat_stock.jpg","incongruent","n",502.690115,"f","f","left","(862, 362)",358,1,504.109717840471,-120.792217898268," 1005.54",101,3,0,0
"41",101,"left","SHINEd_DentalFloss.jpg","incongruent","m",419.161788,"j","j","right","(148, 362)",117,1,420.489723641348,-204.412212097391," 2375.34",148,3,0,0
"41",102,"right","SHINEd_Flashlight.jpg","congruent","m",607.8701,"j","j","right","(862, 362)",98,1,609.106368442225,-15.7955672965138," 4127.06",214,3,1,1
"41",103,"right","SHINEd_spinach.jpg","incongruent","n",513.853383,"f","f","left","(862, 362)",266,1,514.997984243102,-109.903951495637," 1444.30",382,3,0,0
"41",104,"left","SHINEd_soil.jpg","congruent","n",640.113974,"f","f","left","(148, 362)",289,1,641.166908043979,16.2649723052404," 3624.32",241,3,0,0
"41",105,"left","SHINEd_Snail.jpg","congruent","n",672.468553,"f","f","left","(148, 362)",241,1,673.429819844856,48.5278841061175," 1652.73",192,3,1,1
"41",106,"right","SHINEd_Feet.jpg","incongruent","n",613.082169,"j","f","left","(862, 362)",310,0,613.951768645733,-10.9501670930054," 1711.28",37,4,1,1
"41",107,"left","SHINEd_Branch.jpg","congruent","n",553.44632,"f","f","left","(148, 362)",333,1,554.224252446611,-70.6776832921283," 4444.06",345,3,1,1
"41",108,"right","SHINEd_red_Cabbage.jpg","incongruent","n",582.05877,"j","f","left","(862, 362)",230,0,582.745035247488,-42.1569004912512,"  805.36",449,4,0,0
"41",109,"right","SHINEd_Bathtub.jpg","congruent","m",618.810212,"f","j","right","(862, 362)",58,0,619.404810048365,-5.49712569037408," 1460.86",116,4,1,1
"41",110,"right","SHINEd_Dog_Bulldog.jpg","incongruent","n",510.747291,"f","f","left","(862, 362)",326,1,511.250221849242,-113.651713889497," 1230.54",40,4,1,1
"41",111,"right","SHINEd_Bucket_Rusty.jpg","congruent","m",547.317488,"f","j","right","(862, 362)",34,0,547.728751650119,-77.1731840886198," 2406.95",404,2,0,0
"41",112,"right","SHINEd_Currants.jpg","incongruent","n",583.480908,"f","f","left","(862, 362)",254,1,583.800504450996,-41.1014312877427," 1487.25",147,2,1,NA
"41",113,"left","SHINEd_Leek.jpg","congruent","n",641.951428,"f","f","left","(148, 362)",357,1,642.179357251873,17.2774215131343," 2933.38",137,4,1,1
"41",114,"left","SHINEd_mosquito.jpg","congruent","n",599.080022,"f","f","left","(148, 362)",393,1,599.21628405275,-25.6856516859885," 1349.73",58,4,1,1
"41",115,"left","SHINEd_Bowl_Wooden.jpg","incongruent","m",561.263038,"j","j","right","(148, 362)",141,1,561.307632853627,-63.5943028851113," 1863.51",194,2,1,NA
"41",116,"right","SHINEd_Beater_Electric.jpg","congruent","m",687.938019,"f","j","right","(862, 362)",42,0,687.890946654505,62.9890109157658," 1041.34",187,4,0,0
"41",117,"left","SHINEd_Jetski.jpg","incongruent","m",NA,"miss","j","right","(148, 362)",181,0,NA,NA," 1060.90",127,4,0,0
"41",118,"left","SHINEd_dragonfruit.jpg","congruent","n",390.83287,"j","f","left","(148, 362)",437,0,390.602463256259,-234.29947248248," 2861.68",456,3,1,1
"41",119,"right","SHINEd_Cat.jpg","incongruent","n",536.893761,"f","f","left","(862, 362)",362,1,536.571687057136,-88.3302486816029," 2193.93",420,3,0,0
"41",120,"right","SHINEd_Fryingpan.jpg","congruent","m",709.483937,"j","j","right","(862, 362)",158,1,709.070195858013,84.1682601192741," 2388.42",256,3,0,0
"41",121,"right","SHINEd_Gecko.jpg","incongruent","n",513.284659,"f","f","left","(862, 362)",370,1,512.77925065889,-112.122685079849," 1268.47",338,4,1,1
"41",122,"left","SHINEd_red_panda.jpg","congruent","n",507.358501,"f","f","left","(148, 362)",273,1,506.761425459767,-118.140510278972," 1037.13",393,4,1,1
"41",123,"left","SHINEd_Cabinet_Display.jpg","incongruent","m",520.584858,"j","j","right","(148, 362)",205,1,519.896115260644,-105.005820478094," 1713.40",32,4,1,1
"41",124,"left","SHINEd_Drum_Bongos.jpg","incongruent","m",429.225056,"j","j","right","(148, 362)",9,1,428.444646061521,-196.457289677217," 1072.80",150,4,0,0
"41",125,"left","SHINEd_goldenberry.jpg","congruent","n",474.367174,"f","f","left","(148, 362)",397,1,473.495096862398,-151.40683887634," 1295.52",283,4,0,0
"41",126,"right","SHINEd_Tomato.jpg","incongruent","n",478.760502,"f","f","left","(862, 362)",450,1,477.796757663276,-147.105178075463," 1254.25",84,4,1,1
"41",127,"left","SHINEd_Dog_ChowChow.jpg","congruent","n",404.212086,"f","f","left","(148, 362)",369,1,403.156674464153,-221.745261274586," 1296.43",278,4,0,0
"41",128,"left","SHINEd_Pacifier.jpg","incongruent","m",543.021091,"j","j","right","(148, 362)",81,1,541.87401226503,-83.027923473709," 1359.63",153,4,0,0
"41",129,"right","SHINEd_Slide.jpg","congruent","m",753.74464,"j","j","right","(862, 362)",82,1,752.505894065907,127.603958327168," 5536.23",24,2,0,0
"41",130,"left","SHINEd_Knife_Camping.jpg","incongruent","m",766.975682,"j","j","right","(148, 362)",37,1,765.645268866784,140.743333128045," 1447.43",289,3,1,1
"41",131,"right","SHINEd_Clarinet.jpg","congruent","m",523.013647,"j","j","right","(862, 362)",6,1,521.591566667661,-103.310369071078," 1000.95",232,4,1,1
"41",132,"left","SHINEd_platypus.jpg","congruent","n",343.524878,"f","f","left","(148, 362)",293,1,342.011130468538,-282.8908052702," 1573.21",75,4,1,1
"41",133,"right","SHINEd_peacockfeather.jpg","incongruent","n",909.011834,"f","f","left","(862, 362)",382,1,907.406419269415,282.504483530677,"  942.65",427,4,1,1
"41",134,"right","SHINEd_PencilSharpener.jpg","congruent","m",528.420059,"j","j","right","(862, 362)",74,1,526.722977070292,-98.1789586684463," 1549.57",39,3,0,0
"41",135,"right","SHINEd_volcano copy.jpg","incongruent","n",883.843286,"f","f","left","(862, 362)",234,1,882.05453687117,257.152601132431," 1846.51",134,4,1,1
"41",136,"left","SHINEd_Kettle.jpg","incongruent","m",511.517975,"j","j","right","(148, 362)",157,1,509.637558672047,-115.264377066692," 1019.18",270,3,0,0
"41",137,"right","SHINEd_Clip_Paper.jpg","congruent","m",723.446056,"j","j","right","(862, 362)",66,1,721.473972472924,96.572036734185," 1108.35",311,4,1,1
"41",138,"left","SHINEd_Turtle.jpg","congruent","n",944.018977,"f","f","left","(148, 362)",305,1,941.955226273801,317.053290535062," 1510.50",93,3,0,0
"41",139,"left","SHINEd_HotWaterBottle.jpg","incongruent","m",948.505483,"j","j","right","(148, 362)",113,1,946.350065074678,321.448129335939," 1462.89",336,3,1,1
"41",140,"right","SHINEd_Swing_Child.jpg","congruent","m",615.700915,"j","j","right","(862, 362)",166,1,613.453829875555,-11.4481058631836,"  951.33",163,4,0,0
"41",141,"right","SHINEd_Pumpkin.jpg","incongruent","n",470.026748,"f","f","left","(862, 362)",294,1,467.687995676432,-157.213940062307," 1402.58",219,3,1,1
"41",142,"left","SHINEd_cottonplant.jpg","congruent","n",400.601715,"j","f","left","(148, 362)",297,0,398.171295477309,-226.730640261429," 1576.07",315,2,1,NA
"41",143,"right","SHINEd_RamAnimal.jpg","incongruent","n",478.256119,"f","f","left","(862, 362)",454,1,475.734032278186,-149.167903460552," 3136.67",15,1,0,0
"41",144,"right","SHINEd_Deodorant.jpg","congruent","m",634.670758,"j","j","right","(862, 362)",118,1,632.057004079064,7.15506834032478,"  783.26",442,4,0,0
"41",145,"left","SHINEd_Megaphone.jpg","incongruent","m",728.002223,"j","j","right","(148, 362)",101,1,725.296801879941,100.394866141202," 1351.42",380,3,1,1
"41",146,"right","SHINEd_rose.jpg","incongruent","n",714.775915,"f","f","left","(862, 362)",430,1,711.978826680818,87.0768909420791,"  894.55",213,4,1,1
"41",147,"left","SHINEd_Leaf_Clover.jpg","congruent","n",559.763439,"f","f","left","(148, 362)",449,1,556.874683481695,-68.0272522570439,"  912.36",257,4,1,1
"41",148,"left","SHINEd_Carabiner_Orange.jpg","incongruent","m",532.60447,"j","j","right","(148, 362)",29,1,529.624047282572,-95.2778884561668," 1864.71",3,4,1,1
"41",149,"left","SHINEd_vanillabean copy.jpg","congruent","n",575.293541,"f","f","left","(148, 362)",329,1,572.221451083449,-52.6804846552896," 1407.86",73,4,1,1
"41",150,"right","SHINEd_Calculator.jpg","congruent","m",540.622255,"j","j","right","(862, 362)",94,1,537.458497884326,-87.4434378544125," 1768.65",401,4,0,0
"41",151,"left","SHINEd_catcus.jpg","congruent","n",682.773849,"f","f","left","(148, 362)",313,1,679.518424685203,54.6164889464646," 1118.25",364,4,1,1
"41",152,"left","SHINEd_Vest.jpg","incongruent","m",479.856988,"j","j","right","(148, 362)",5,1,476.50989648608,-148.392039252658," 3455.90",12,2,1,NA
"41",153,"left","SHINEd_Bleachers.jpg","incongruent","m",537.411028,"j","j","right","(148, 362)",133,1,533.972269286957,-90.9296664517812,"  788.77",354,3,0,0
"41",154,"right","SHINEd_Weights_Dumbells.jpg","congruent","m",575.116417,"j","j","right","(862, 362)",22,1,571.585991087835,-53.3159446509041," 1014.88",439,3,1,1
"41",155,"right","SHINEd_CasketOpen.jpg","congruent","m",522.629461,"j","j","right","(862, 362)",218,1,519.007367888712,-105.894567850027," 1624.30",209,4,1,1
"41",156,"left","SHINEd_Carrot.jpg","congruent","n",657.263967,"f","f","left","(148, 362)",281,1,653.550206689589,28.6482709508501," 2544.61",334,4,0,0
"41",157,"left","SHINEd_Wheel_Steering.jpg","incongruent","m",540.310191,"j","j","right","(148, 362)",185,1,536.504763490466,-88.3971722482727," 1199.89",149,4,0,0
"41",158,"right","SHINEd_Cantaloupe.jpg","incongruent","n",800.795748,"f","f","left","(862, 362)",338,1,796.898653291343,171.996717552604," 1366.74",268,3,1,1
"41",159,"right","SHINEd_Bicycle_Kids.jpg","congruent","m",723.806231,"j","j","right","(862, 362)",26,1,719.81746909222,94.9155333534815," 1885.94",291,3,0,0
"41",160,"left","SHINEd_WatermelonSlice.jpg","congruent","n",623.853794,"f","f","left","(148, 362)",325,1,619.773364893097,-5.12857084564144," 1276.26",292,4,1,1
"41",161,"left","SHINEd_Bottle_Blue.jpg","incongruent","m",507.670025,"j","j","right","(148, 362)",217,1,503.497928693974,-121.404007044764," 1219.44",267,3,0,0
"41",162,"right","SHINEd_Door_Green.jpg","congruent","m",610.48527,"j","j","right","(862, 362)",106,1,606.221506494852,-18.6804292438872," 1551.38",348,1,1,NA
"41",163,"left","SHINEd_Skates.jpg","incongruent","m",606.065677,"f","j","right","(148, 362)",125,0,601.710246295729,-23.1916894430101," 1904.39",307,4,0,0
"41",164,"right","SHINEd_ElectricOutlet.jpg","congruent","m",952.724749,"f","j","right","(862, 362)",102,0,948.277651096606,323.375715357867," 1733.53",228,3,1,1
"41",165,"left","SHINEd_FlipFlop_PairBlue.jpg","incongruent","m",574.210281,"f","j","right","(148, 362)",153,0,569.671515897483,-55.2304198412559,"  998.94",290,3,1,1
"41",166,"left","SHINEd_Chair_High.jpg","incongruent","m",835.383259,"f","j","right","(148, 362)",209,0,830.75282669836,205.850890959621," 1756.35",277,3,1,1
"41",167,"left","SHINEd_Oyster.jpg","congruent","n",821.61669,"f","f","left","(148, 362)",433,1,816.894590499237,191.992654760498," 2024.33",96,2,1,NA
"41",168,"right","SHINEd_purple_yam.jpg","incongruent","n",865.682931,"j","f","left","(862, 362)",442,0,860.869164300114,235.967228561376," 2647.36",340,3,0,0
"41",169,"left","SHINEd_Leg.jpg","congruent","n",701.813555,"j","f","left","(148, 362)",405,0,696.908121100991,72.0061853622525," 1519.61",180,4,1,1
"41",170,"right","SHINEd_LawnMower.jpg","congruent","m",NA,"miss","j","right","(862, 362)",46,0,NA,NA,"  918.96",104,3,0,0
"41",171,"right","SHINEd_Boot_Rain.jpg","congruent","m",469.845494,"j","j","right","(862, 362)",150,1,464.756725702746,-160.145210035993," 2270.87",269,3,0,0
"41",172,"right","SHINEd_Cranberry.jpg","incongruent","n",690.437953,"f","f","left","(862, 362)",398,1,685.257517503623,60.3555817648839," 2288.64",282,3,1,1
"41",173,"right","SHINEd_USBKey.jpg","congruent","m",662.05875,"j","j","right","(862, 362)",90,1,656.7866473045,31.884711565761," 1313.61",60,4,1,1
"41",174,"right","SHINEd_Fruit_Orange.jpg","incongruent","n",610.641974,"f","f","left","(862, 362)",302,1,605.278204105377,-19.6237316333619," 1347.99",254,3,0,0
"41",175,"right","SHINEd_MobilityScooter.jpg","congruent","m",759.695495,"j","j","right","(862, 362)",182,1,754.240057906254,129.338122167515," 1743.73",286,3,0,0
"41",176,"left","SHINEd_Gorilla.jpg","congruent","n",530.29085,"f","f","left","(148, 362)",285,1,524.743745707131,-100.158190031608," 1343.10",451,3,1,1
"41",177,"left","SHINEd_Hat_Baseball.jpg","incongruent","m",535.965555,"j","j","right","(148, 362)",189,1,530.326783508008,-94.5751522307306," 1220.91",212,4,0,0
"41",178,"right","SHINEd_Drill.jpg","congruent","m",555.012074,"j","j","right","(862, 362)",30,1,549.281635308885,-75.6203004298535," 1641.23",243,3,0,0
"41",179,"left","SHINEd_Binder.jpg","incongruent","m",528.113356,"j","j","right","(148, 362)",65,1,522.291250109762,-102.610685628976," 1102.91",230,4,1,1
"41",180,"right","SHINEd_Teapot.jpg","congruent","m",499.264092,"j","j","right","(862, 362)",214,1,493.35031891064,-131.551616828099," 1197.77",231,4,1,1
"41",181,"right","SHINEd_HairClip.jpg","congruent","m",534.925168,"j","j","right","(862, 362)",194,1,528.919727711517,-95.9822080272221," 1196.51",169,4,1,1
"41",182,"left","SHINEd_Boat_Colourful.jpg","incongruent","m",708.883904,"j","j","right","(148, 362)",173,1,702.786796512394,77.884860773655," 1812.05",350,4,1,1
"41",183,"left","SHINEd_white_strawberries.jpg","congruent","n",616.16051,"f","f","left","(148, 362)",417,1,609.971735313271,-14.9302004254679," 1422.32",25,4,1,1
"41",184,"left","SHINEd_BowlingPin.jpg","incongruent","m",571.855595,"j","j","right","(148, 362)",25,1,565.575153114148,-59.3267826245908," 1495.92",306,3,1,1
"41",185,"right","SHINEd_Mask_HockeyGoalie.jpg","congruent","m",663.300613,"j","j","right","(862, 362)",126,1,656.928503915025,32.0265681762863," 2619.60",326,4,0,0
"41",186,"left","SHINEd_Clock_Radio.jpg","incongruent","m",700.112693,"j","j","right","(148, 362)",93,1,693.648916715902,68.7469809771635," 2009.74",240,3,1,1
"41",187,"left","SHINEd_orchid.jpg","congruent","n",569.956971,"f","f","left","(148, 362)",261,1,563.401527516779,-61.5004082219595," 1678.01",235,4,0,0
"41",188,"left","SHINEd_BusStop.jpg","incongruent","m",550.019314,"j","j","right","(148, 362)",145,1,543.372203317656,-81.5297324210823," 1414.22",273,4,1,1
"41",189,"left","SHINEd_Switch_LightWhite.jpg","incongruent","m",498.576324,"j","j","right","(148, 362)",57,1,491.837546118534,-133.064389620205," 2952.30",130,3,1,1
"41",190,"left","SHINEd_pickle.jpg","congruent","n",718.168696,"f","f","left","(148, 362)",373,1,711.338250919411,86.4363151806718," 1176.63",313,4,1,1
"41",191,"left","SHINEd_brusselsprouts.jpg","congruent","n",569.32573,"f","f","left","(148, 362)",265,1,562.403617720288,-62.498318018451," 2640.16",205,2,1,NA
"41",192,"left","SHINEd_Mattress.jpg","incongruent","m",557.355974,"j","j","right","(148, 362)",49,1,550.342194521165,-74.559741217574,"  952.90",114,4,1,1
"41",193,"right","SHINEd_manatee.jpg","incongruent","n",552.228188,"f","f","left","(862, 362)",342,1,545.122741322042,-79.7791944166968," 1349.93",146,4,0,0
"41",194,"left","SHINEd_mizuna.jpg","congruent","n",829.675995,"f","f","left","(148, 362)",429,1,822.478881122919,197.57694538418," 2125.29",351,4,1,1
"41",195,"right","SHINEd_SkullDeer.jpg","incongruent","n",600.38937,"j","f","left","(862, 362)",278,0,593.100588923796,-31.8013468149426," 1080.20",297,4,1,1
"41",196,"right","SHINEd_LightHouse.jpg","congruent","m",645.129018,"f","j","right","(862, 362)",146,0,637.748569724673,12.8466339859345," 1637.98",252,4,1,1
"41",197,"left","SHINEd_Mango.jpg","congruent","n",767.777579,"f","f","left","(148, 362)",277,1,760.30546352555,135.403527786812," 2655.26",182,4,0,0
"41",198,"left","SHINEd_Lychee.jpg","congruent","n",580.804945,"f","f","left","(148, 362)",321,1,573.241162326427,-51.6607734123113," 2655.49",261,3,0,0
"41",199,"right","SHINEd_Bird_Pelican.jpg","incongruent","n",760.899259,"f","f","left","(862, 362)",402,1,753.243809127305,128.341873388566," 2157.08",142,4,0,0
"41",200,"right","SHINEd_Bench_Black.jpg","congruent","m",541.211147,"j","j","right","(862, 362)",206,1,533.464029928182,-91.437905810557," 1124.48",357,3,0,0
"41",201,"right","SHINEd_Cane_Metal.jpg","congruent","m",569.293783,"j","j","right","(862, 362)",190,1,561.454998729059,-63.44693700968," 2437.89",318,2,1,NA
"41",202,"left","SHINEd_Bottle_Beer.jpg","incongruent","m",499.406668,"j","j","right","(148, 362)",213,1,491.476216529936,-133.425719208803," 2221.40",388,2,0,0
"41",203,"left","SHINEd_frog.jpg","congruent","n",768.244641,"f","f","left","(148, 362)",345,1,760.222522330813,135.320586592074," 1204.23",453,4,1,1
"41",204,"left","SHINEd_Toad.jpg","congruent","n",540.445961,"f","f","left","(148, 362)",441,1,532.33217513169,-92.5697606070486," 1863.42",5,4,1,1
"41",205,"left","SHINEd_Bells_Christmas.jpg","incongruent","m",599.341679,"j","j","right","(148, 362)",225,1,591.136225932567,-33.7657098061715," 1209.26",112,4,1,1
"41",206,"right","SHINEd_Dragonfly.jpg","incongruent","n",791.596878,"f","f","left","(862, 362)",346,1,783.299757733444,158.397821994706," 2153.58",145,3,0,0
"41",207,"left","SHINEd_Pineapple.jpg","congruent","n",557.164748,"f","f","left","(148, 362)",353,1,548.775960534321,-76.1259752044172,"  945.76",27,4,1,1
"41",208,"left","SHINEd_DeepFryer.jpg","incongruent","m",935.960496,"j","j","right","(148, 362)",161,1,927.480041335199,302.57810559646," 1536.93",174,3,0,0
"41",209,"left","SHINEd_Mitt_Oven.jpg","incongruent","m",568.727647,"j","j","right","(148, 362)",137,1,560.155525136076,-64.746410602663," 3927.68",412,3,1,1
"41",210,"right","SHINEd_discoball.jpg","congruent","m",596.099366,"j","j","right","(862, 362)",226,1,587.435576936953,-37.4663588017859," 1029.10",419,4,1,1
"41",211,"left","SHINEd_Bird_Eagle.jpg","congruent","n",457.459606,"f","f","left","(148, 362)",257,1,448.70414973783,-176.197786000909," 4184.88",133,4,0,0
"41",212,"right","SHINEd_Flamingo_Real.jpg","incongruent","n",572.678862,"f","f","left","(862, 362)",406,1,563.831738538707,-61.0701972000317," 1120.87",198,4,1,1
"41",213,"right","SHINEd_Dog_CockerSpaniel.jpg","incongruent","n",545.253822,"f","f","left","(862, 362)",306,1,536.315031339584,-88.5869043991546," 1493.82",97,4,0,0
"41",214,"left","SHINEd_catfish.jpg","congruent","n",838.077008,"f","f","left","(148, 362)",361,1,829.046550140461,204.144614401723," 3904.84",31,1,0,0
"41",215,"left","SHINEd_Crown.jpg","incongruent","m",672.60893,"j","j","right","(148, 362)",193,1,663.486804941338,38.5848692025996," 1408.23",64,4,1,1
"41",216,"left","SHINEd_DogHouse.jpg","incongruent","m",795.777379,"j","j","right","(148, 362)",165,1,786.563586742216,161.661651003477," 1291.82",215,4,1,1
"41",217,"right","SHINEd_DustPan.jpg","congruent","m",537.865714,"j","j","right","(862, 362)",54,1,528.560254543093,-96.3416811956461," 3016.45",335,3,0,0
"41",218,"left","SHINEd_Dice.jpg","incongruent","m",501.545196,"j","j","right","(148, 362)",89,1,492.14806934397,-132.753866394769," 1018.84",6,4,1,1
"41",219,"right","SHINEd_brownbeans.jpg","incongruent","n",746.412905,"f","f","left","(862, 362)",366,1,736.924111144847,112.022175406108," 1871.40",77,4,1,1
"41",220,"left","SHINEd_starfruit.jpg","congruent","n",823.540964,"f","f","left","(148, 362)",317,1,813.960502945724,189.058567206985," 1302.89",227,4,0,0
"41",221,"left","SHINEd_Quartz.jpg","congruent","n",843.914526,"f","f","left","(148, 362)",401,1,834.242397746601,209.340462007862," 2364.28",255,3,0,0
"41",222,"right","SHINEd_TissueBox.jpg","congruent","m",728.127065,"j","j","right","(862, 362)",50,1,718.363269547478,93.4613338087394," 1519.00",55,4,1,1
"41",223,"left","SHINEd_Tree_Fir.jpg","congruent","n",667.707719,"f","f","left","(148, 362)",229,1,657.852256348355,32.9503206096165," 1075.11",312,4,1,1
"41",224,"right","SHINEd_Seashell_BayScallop.jpg","incongruent","n",648.251266,"f","f","left","(862, 362)",270,1,638.304136149232,13.4022004104936,"  993.28",201,3,1,1
"41",225,"right","SHINEd_Butterfly.jpg","incongruent","n",708.279987,"f","f","left","(862, 362)",318,1,698.24118995011,73.3392542113707," 1814.15",9,4,1,1
"41",226,"right","SHINEd_Glove_Rubber.jpg","congruent","m",789.955464,"j","j","right","(862, 362)",138,1,779.824999750987,154.923064012248," 1141.44",272,3,1,1
"41",227,"left","SHINEd_ChainRusty.jpg","incongruent","m",713.963057,"j","j","right","(148, 362)",21,1,703.740925551864,78.838989813125," 1216.12",373,4,1,1
"41",228,"right","SHINEd_grasshopper.jpg","incongruent","n",662.008677,"f","f","left","(862, 362)",286,1,651.694878352741,26.7929426140021,"  925.85",416,4,0,0
