"participant","trial_index","screenposition","stimulus","trialtype","classifyenc","rt","response","responsecorrect","responsecorrect_side","screenlocation","stimnum","acc","rtResidual","rtResidualC","rt_rec","trialno_rec","ratingConfidence","acc_rec","memoryHits.hc"
"43",1,"left","SHINEd_Helmet_Bicycle.jpg","incongruent","m",905.683344,"j","j","right","(148, 362)",18,1,878.040853952131,252.89382950259,"  879.33",188,4,1,1
"43",2,"left","SHINEd_Tomato.jpg","congruent","n",860.705022,"f","f","left","(148, 362)",450,1,833.309958058896,208.162933609355," 1048.26",339,4,1,1
"43",3,"right","SHINEd_Bottle_Beer.jpg","congruent","m",575.227563,"j","j","right","(862, 362)",213,1,548.079925165668,-77.0670992838733," 1109.89",52,2,0,0
"43",4,"left","SHINEd_Briefcase_Leather.jpg","incongruent","m",522.311793,"j","j","right","(148, 362)",210,1,495.41158127244,-129.735443177101," 1222.19",18,4,1,1
"43",5,"right","SHINEd_HotWaterBottle.jpg","congruent","m",671.561519,"j","j","right","(862, 362)",113,1,644.908733379212,19.7617089296711,"  758.85",123,4,1,1
"43",6,"left","SHINEd_Swing_Child.jpg","incongruent","m",714.685086,"j","j","right","(148, 362)",166,1,688.279726485985,63.1327020364433,"  928.90",278,4,1,1
"43",7,"right","SHINEd_Bells_Christmas.jpg","congruent","m",766.760021,"j","j","right","(862, 362)",225,1,740.602087592757,115.455063143216," 1005.77",156,4,1,1
"43",8,"left","SHINEd_Flashlight.jpg","incongruent","m",610.00545,"j","j","right","(148, 362)",98,1,584.094942699529,-41.0520817500122,"  775.81",222,4,1,1
"43",9,"left","SHINEd_Dragonfly.jpg","congruent","n",701.031218,"f","f","left","(148, 362)",346,1,675.368136806301,50.2211123567599,"  766.14",372,4,1,1
"43",10,"right","SHINEd_Lychee.jpg","incongruent","n",696.078241,"f","f","left","(862, 362)",321,1,670.662585913073,45.5155614635322,"  918.55",367,3,1,1
"43",11,"right","SHINEd_Dice.jpg","congruent","m",596.767153,"j","j","right","(862, 362)",89,1,571.598924019846,-53.5481004296956,"  718.94",118,4,1,1
"43",12,"right","SHINEd_WatermelonSlice.jpg","incongruent","n",623.141919,"f","f","left","(862, 362)",325,1,598.221116126618,-26.9259083229234,"  772.79",256,4,1,1
"43",13,"right","SHINEd_Ruler_Wooden.jpg","congruent","m",700.528762,"j","j","right","(862, 362)",73,1,675.85538523339,50.7083607838488," 1195.86",296,4,1,1
"43",14,"right","SHINEd_mizuna.jpg","incongruent","n",858.045145,"f","f","left","(862, 362)",429,1,833.619194340162,208.472169890621,"  568.57",74,4,1,1
"43",15,"right","SHINEd_DeepFryer.jpg","congruent","m",532.624906,"j","j","right","(862, 362)",161,1,508.446381446934,-116.700643002607,"  823.23",116,4,1,1
"43",16,"left","SHINEd_DustPan.jpg","incongruent","m",624.054771,"j","j","right","(148, 362)",54,1,600.123672553707,-25.0233518958347," 1658.45",122,4,1,1
"43",17,"right","SHINEd_Makeup_Compact.jpg","congruent","m",NA,"miss","j","right","(862, 362)",121,0,NA,NA,"  708.57",171,4,1,1
"43",18,"right","SHINEd_okapi.jpg","incongruent","n",519.796549,"f","f","left","(862, 362)",425,1,496.360302767251,-128.78672168229," 1669.97",25,4,1,1
"43",19,"left","SHINEd_TissueBox.jpg","incongruent","m",730.34581,"f","j","right","(148, 362)",50,0,707.156989874023,82.009965424482," 1385.07",35,4,1,1
"43",20,"right","SHINEd_Colander.jpg","congruent","m",631.453555,"j","j","right","(862, 362)",41,1,608.512160980796,-16.6348634687457," 1302.11",336,3,1,1
"43",21,"left","SHINEd_Door_Green.jpg","incongruent","m",586.433396,"j","j","right","(148, 362)",106,1,563.739428087568,-61.4075963619736,"  967.62",126,4,1,1
"43",22,"right","SHINEd_Quartz.jpg","incongruent","n",655.192515,"f","f","left","(862, 362)",401,1,632.74597319434,7.59894874479857,"  716.82",231,4,1,1
"43",23,"left","SHINEd_Goat.jpg","congruent","n",681.109897,"f","f","left","(148, 362)",322,1,658.910781301112,33.7637568515709," 1303.44",233,2,0,0
"43",24,"right","SHINEd_Leaf_Clover.jpg","incongruent","n",596.588844,"j","f","left","(862, 362)",449,0,574.637154407884,-50.509870041657,"  617.28",326,4,1,1
"43",25,"right","SHINEd_DentalFloss.jpg","congruent","m",705.03251,"j","j","right","(862, 362)",117,1,683.328246514656,58.1812220651152," 1855.51",202,4,1,1
"43",26,"right","SHINEd_Leek.jpg","incongruent","n",555.347812,"f","f","left","(862, 362)",357,1,533.890974621429,-91.2560498281126,"  910.62",215,4,1,1
"43",27,"left","SHINEd_Bird_Pelican.jpg","congruent","n",633.158987,"f","f","left","(148, 362)",402,1,611.949575728201,-13.1974487213403,"  933.96",448,3,0,0
"43",28,"left","SHINEd_Butterfly.jpg","congruent","n",564.234126,"f","f","left","(148, 362)",318,1,543.272140834973,-81.8748836145682," 1902.13",97,3,0,0
"43",29,"left","SHINEd_Bench_Black.jpg","incongruent","m",599.499629,"j","j","right","(148, 362)",206,1,578.785069941745,-46.3619545077959," 1678.46",412,3,0,0
"43",30,"left","SHINEd_raccoon.jpg","congruent","n",681.786748,"f","f","left","(148, 362)",262,1,661.319615048518,36.1725905989762,"  782.61",91,4,1,1
"43",31,"right","SHINEd_brusselsprouts.jpg","incongruent","n",644.793493,"f","f","left","(862, 362)",265,1,624.57378615529,-0.573238294251531," 1568.56",405,3,1,1
"43",32,"right","SHINEd_pickle.jpg","incongruent","n",608.623102,"f","f","left","(862, 362)",373,1,588.650821262062,-36.4962031874793," 1340.74",298,2,1,NA
"43",33,"left","SHINEd_Lynx.jpg","congruent","n",716.85848,"f","f","left","(148, 362)",438,1,697.133625368834,71.9866009192929," 1008.01",119,4,1,1
"43",34,"left","SHINEd_Drill.jpg","incongruent","m",560.959789,"j","j","right","(148, 362)",30,1,541.482360475606,-83.6646639739349," 1125.93",77,4,1,1
"43",35,"right","SHINEd_Magnifying_Glass.jpg","congruent","m",517.397788,"j","j","right","(862, 362)",105,1,498.167785582379,-126.979238867163," 2037.99",54,1,0,0
"43",36,"left","SHINEd_couch.jpg","incongruent","m",593.374681,"j","j","right","(148, 362)",202,1,574.392104689151,-50.7549197603905,"  872.34",403,4,1,1
"43",37,"left","SHINEd_eucalyptus.jpg","congruent","n",620.626982,"f","f","left","(148, 362)",282,1,601.891831795923,-23.2551926536183,"  871.97",161,3,0,0
"43",38,"right","SHINEd_catcus.jpg","incongruent","n",711.486334,"f","f","left","(862, 362)",313,1,692.998609902695,67.8515854531539,"  662.41",191,4,1,1
"43",39,"left","SHINEd_treestump.jpg","congruent","n",810.366556,"f","f","left","(148, 362)",414,1,792.126258009467,166.979233559926,"  720.34",138,4,1,1
"43",40,"left","SHINEd_discoball.jpg","incongruent","m",525.63884,"j","j","right","(148, 362)",226,1,507.64596811624,-117.501056333302,"  762.12",357,4,1,1
"43",41,"left","SHINEd_antlers.jpg","congruent","n",586.913747,"f","f","left","(148, 362)",418,1,569.168301223012,-55.9787232265295," 1101.05",417,4,1,1
"43",42,"right","SHINEd_Gorilla.jpg","incongruent","n",527.070011,"f","f","left","(862, 362)",285,1,509.571991329784,-115.575033119757," 1111.42",352,3,1,1
"43",43,"right","SHINEd_RecordPlayer.jpg","congruent","m",529.77931,"j","j","right","(862, 362)",149,1,512.528716436556,-112.618308012985," 1606.20",184,2,1,NA
"43",44,"right","SHINEd_Carrot.jpg","incongruent","n",606.653113,"f","f","left","(862, 362)",281,1,589.649945543328,-35.4970789062129,"  686.99",332,4,1,1
"43",45,"right","SHINEd_Oyster.jpg","incongruent","n",865.946221,"f","f","left","(862, 362)",433,1,849.190479650101,224.043455200559," 1870.03",23,4,1,1
"43",46,"right","SHINEd_Boat_Colourful.jpg","congruent","m",709.113267,"j","j","right","(862, 362)",173,1,692.604951756873,67.4579273073315," 1210.32",134,4,1,1
"43",47,"right","SHINEd_Dog_ChowChow.jpg","incongruent","n",528.402942,"f","f","left","(862, 362)",369,1,512.142052863645,-113.004971585896," 2504.14",206,2,1,NA
"43",48,"right","SHINEd_artichoke.jpg","incongruent","n",708.526379,"f","f","left","(862, 362)",453,1,692.512915970417,67.3658915208759,"  802.22",56,4,1,1
"43",49,"right","SHINEd_FlipFlop_PairBlue.jpg","congruent","m",550.461514,"j","j","right","(862, 362)",153,1,534.695477077189,-90.4515473723519,"  967.64",430,4,0,0
"43",50,"left","SHINEd_Lipstick.jpg","incongruent","m",882.820766,"f","j","right","(148, 362)",198,0,867.302155183962,242.15513073442," 1332.74",436,4,1,1
"43",51,"left","SHINEd_Cat.jpg","congruent","n",662.534505,"f","f","left","(148, 362)",362,1,647.263320290734,22.1162958411925,"  836.12",70,4,1,1
"43",52,"right","SHINEd_Mattress.jpg","congruent","m",858.551693,"j","j","right","(862, 362)",49,1,843.527934397506,218.380909947965," 1095.24",110,4,1,1
"43",53,"right","SHINEd_Bird_Parrot.jpg","incongruent","n",541.038101,"f","f","left","(862, 362)",233,1,526.261768504278,-98.8852559452631,"  902.33",300,3,0,0
"43",54,"right","SHINEd_fountain.jpg","congruent","m",655.957837,"j","j","right","(862, 362)",169,1,641.428930611051,16.2819061615092," 3733.26",350,3,0,0
"43",55,"left","SHINEd_Nail.jpg","incongruent","m",622.004949,"j","j","right","(148, 362)",38,1,607.723468717823,-17.4235557317186,"  821.42",451,4,1,1
"43",56,"right","SHINEd_dragonfruit.jpg","incongruent","n",630.203385,"f","f","left","(862, 362)",437,1,616.169330824595,-8.9776936249464,"  622.32",131,4,1,1
"43",57,"left","SHINEd_Radish.jpg","congruent","n",683.014935,"f","f","left","(148, 362)",242,1,669.228306931367,44.0812824818258," 1157.39",329,3,1,1
"43",58,"left","SHINEd_Slippers.jpg","incongruent","m",621.041991,"j","j","right","(148, 362)",154,1,607.502789038139,-17.644235411402," 1016.62",364,3,0,0
"43",59,"right","SHINEd_Skates.jpg","congruent","m",874.571887,"j","j","right","(862, 362)",125,1,861.280111144911,236.13308669537," 1830.35",150,2,0,0
"43",60,"left","SHINEd_Teapot.jpg","incongruent","m",596.96691,"j","j","right","(148, 362)",214,1,583.922560251684,-41.2244641978576," 1336.72",398,3,1,1
"43",61,"right","SHINEd_Turtle.jpg","incongruent","n",497.472121,"f","f","left","(862, 362)",305,1,484.675197358456,-140.471827091085," 1927.54",381,3,1,1
"43",62,"right","SHINEd_Camera_Video.jpg","congruent","m",539.634734,"j","j","right","(862, 362)",97,1,527.085236465228,-98.0617879843132," 1237.95",286,3,0,0
"43",63,"right","SHINEd_white_strawberries.jpg","incongruent","n",686.644506,"f","f","left","(862, 362)",417,1,674.342434572,49.195410122459,"  625.05",58,4,1,1
"43",64,"left","SHINEd_RamAnimal.jpg","congruent","n",597.959394,"f","f","left","(148, 362)",454,1,585.904748678772,-39.2422757707688," 1831.10",66,4,1,1
"43",65,"right","SHINEd_orchid.jpg","incongruent","n",NA,"miss","f","left","(862, 362)",261,0,NA,NA," 1255.04",10,4,1,1
"43",66,"left","SHINEd_brownbeans.jpg","congruent","n",788.614766,"f","f","left","(148, 362)",366,1,777.054972892317,151.907948442776," 2100.99",95,3,1,1
"43",67,"right","SHINEd_starfruit.jpg","incongruent","n",871.94333,"f","f","left","(862, 362)",317,1,860.630962999089,235.483938549548," 2512.24",2,3,1,1
"43",68,"left","SHINEd_Box_Notepaper.jpg","incongruent","m",603.441724,"j","j","right","(148, 362)",70,1,592.376783105861,-32.7702413436799," 1669.67",261,3,1,1
"43",69,"left","SHINEd_skeleton-lizard.jpg","congruent","n",632.018464,"f","f","left","(148, 362)",250,1,621.200949212634,-3.94607523690777,"  999.24",371,4,1,1
"43",70,"left","SHINEd_Clarinet.jpg","incongruent","m",787.018505,"j","j","right","(148, 362)",6,1,776.448416319406,151.301391869864," 1110.19",88,4,1,1
"43",71,"right","SHINEd_Wheel_Steering.jpg","congruent","m",496.378843,"j","j","right","(862, 362)",185,1,486.056180426178,-139.090844023363,"  919.00",281,4,1,1
"43",72,"left","SHINEd_Clip_Paper.jpg","incongruent","m",587.492162,"j","j","right","(148, 362)",66,1,577.41692553295,-47.7300989165911," 1072.88",159,4,1,1
"43",73,"right","SHINEd_Gametable_AirHockey.jpg","congruent","m",510.867445,"j","j","right","(862, 362)",85,1,501.039634639722,-124.107389809819," 1372.44",392,3,1,1
"43",74,"left","SHINEd_ElectricOutlet.jpg","incongruent","m",644.177686,"j","j","right","(148, 362)",102,1,634.597301746495,9.45027729695326,"  847.90",43,4,1,1
"43",75,"right","SHINEd_Vase_Decorative copy.jpg","congruent","m",751.268995,"j","j","right","(862, 362)",221,1,741.936036853267,116.789012403725," 1375.72",308,3,0,0
"43",76,"left","SHINEd_Feet.jpg","congruent","n",529.65346,"f","f","left","(148, 362)",310,1,520.567927960039,-104.579096489502,"  680.69",153,4,1,1
"43",77,"left","SHINEd_MobilityScooter.jpg","incongruent","m",757.022277,"j","j","right","(148, 362)",182,1,748.184171066811,123.03714661727,"  895.21",318,4,1,1
"43",78,"right","SHINEd_Escalator.jpg","congruent","m",424.645243,"j","j","right","(862, 362)",177,1,416.054563173583,-209.092461275958,"  882.90",146,4,1,1
"43",79,"right","SHINEd_dinosaur fossil.jpg","incongruent","n",564.850086,"f","f","left","(862, 362)",377,1,556.506832280356,-68.6401921691857,"  880.19",290,1,0,0
"43",80,"right","SHINEd_HairDryer.jpg","congruent","m",529.145289,"j","j","right","(862, 362)",45,1,521.049461387128,-104.097563062413," 1380.91",76,3,1,1
"43",81,"right","SHINEd_koala.jpg","incongruent","n",499.308384,"f","f","left","(862, 362)",365,1,491.4599824939,-133.687041955641,"  801.78",36,4,1,1
"43",82,"right","SHINEd_Pacifier.jpg","congruent","m",606.85404,"j","j","right","(862, 362)",81,1,599.253064600672,-25.893959848869," 1650.05",173,4,1,1
"43",83,"right","SHINEd_catfish.jpg","incongruent","n",512.558881,"f","f","left","(862, 362)",361,1,505.205331707444,-119.941692742097," 1489.12",319,3,1,1
"43",84,"left","SHINEd_purple_yam.jpg","congruent","n",693.025851,"f","f","left","(148, 362)",442,1,685.919727814217,60.7727033646753,"  689.84",44,4,1,1
"43",85,"right","SHINEd_frog.jpg","incongruent","n",662.630722,"f","f","left","(862, 362)",345,1,655.772024920989,30.6250004714475," 1311.65",251,2,1,NA
"43",86,"left","SHINEd_avocado.jpg","congruent","n",546.142692,"f","f","left","(148, 362)",394,1,539.531421027761,-85.6156034217803,"  917.46",375,4,1,1
"43",87,"left","SHINEd_pomegrant.jpg","congruent","n",597.453666,"f","f","left","(148, 362)",354,1,591.089821134533,-34.0572033150081," 1717.85",266,4,1,1
"43",88,"left","SHINEd_Mask_HockeyGoalie.jpg","incongruent","m",601.994345,"j","j","right","(148, 362)",126,1,595.877926241305,-29.2690982082359,"  734.58",284,3,0,0
"43",89,"right","SHINEd_Drum_Bongos.jpg","congruent","m",868.105169,"j","j","right","(862, 362)",9,1,862.236176348078,237.089151898536," 1318.34",210,4,1,1
"43",90,"right","SHINEd_soil.jpg","incongruent","n",600.732401,"f","f","left","(862, 362)",289,1,595.11083445485,-30.0361899946915," 1508.20",274,3,0,0
"43",91,"right","SHINEd_goldenberry.jpg","incongruent","n",579.31576,"f","f","left","(862, 362)",397,1,573.941619561622,-51.2054048879193," 1327.33",289,3,0,0
"43",92,"left","SHINEd_greenapple.jpg","congruent","n",503.91352,"f","f","left","(148, 362)",410,1,498.786805668394,-126.360218781147," 1214.10",204,4,0,0
"43",93,"right","SHINEd_horse.jpg","incongruent","n",731.30289,"f","f","left","(862, 362)",269,1,726.423601775167,101.276577325625," 1271.23",248,3,0,0
"43",94,"left","SHINEd_hyena.jpg","congruent","n",455.245486,"f","f","left","(148, 362)",422,1,450.613623881939,-174.533400567603," 1784.30",30,3,1,1
"43",95,"right","SHINEd_platypus.jpg","incongruent","n",554.877314,"f","f","left","(862, 362)",293,1,550.492877988711,-74.6541464608305," 1668.61",65,3,0,0
"43",96,"right","SHINEd_Paw.jpg","incongruent","n",694.069397,"f","f","left","(862, 362)",301,1,689.932387095483,64.7853626459417,"  682.64",67,4,1,1
"43",97,"left","SHINEd_lotusroot.jpg","congruent","n",680.448857,"f","f","left","(148, 362)",298,1,676.559273202255,51.4122487527139,"  845.16",230,4,1,1
"43",98,"left","SHINEd_Weights_Dumbells.jpg","incongruent","m",549.385475,"j","j","right","(148, 362)",22,1,545.743317309027,-79.4037071405138,"  821.10",232,4,1,1
"43",99,"left","SHINEd_Pumpkin.jpg","congruent","n",594.934848,"f","f","left","(148, 362)",294,1,591.5401164158,-33.6069080337416," 1663.63",9,4,1,1
"43",100,"left","SHINEd_Boot_Rain.jpg","incongruent","m",570.807552,"f","j","right","(148, 362)",150,0,567.660246522572,-57.4867779269694,"  654.31",194,4,1,1
"43",101,"left","SHINEd_Fryingpan.jpg","incongruent","m",615.410436,"j","j","right","(148, 362)",158,1,612.510556629344,-12.6364678201972,"  750.64",411,3,1,1
"43",102,"left","SHINEd_grasshopper.jpg","congruent","n",699.324752,"f","f","left","(148, 362)",286,1,696.672298736116,71.525274286575,"  679.45",103,4,1,1
"43",103,"right","SHINEd_whale.jpg","incongruent","n",535.384427,"j","f","left","(862, 362)",421,0,532.979399842888,-92.1676246066528," 2086.24",197,3,0,0
"43",104,"left","SHINEd_Fruit_Orange.jpg","congruent","n",890.07722,"f","f","left","(148, 362)",302,1,887.919618949661,262.772594500119," 2236.32",237,3,0,0
"43",105,"left","SHINEd_Cantaloupe.jpg","congruent","n",486.54329,"f","f","left","(148, 362)",338,1,484.633115056433,-140.513909393108," 2673.39",380,3,0,0
"43",106,"right","SHINEd_Tree_Fir.jpg","incongruent","n",834.955453,"f","f","left","(862, 362)",229,1,833.292704163205,208.145679713664,"  837.71",424,4,1,1
"43",107,"left","SHINEd_Nuts_Pecan.jpg","congruent","n",557.433811,"f","f","left","(148, 362)",246,1,556.018488269977,-69.128536179564," 1116.91",418,4,1,1
"43",108,"right","SHINEd_Giraffe.jpg","incongruent","n",481.424627,"f","f","left","(862, 362)",381,1,480.256730376749,-144.890294072792,"  741.48",312,4,1,1
"43",109,"left","SHINEd_SkullDeer.jpg","congruent","n",596.472721,"f","f","left","(148, 362)",278,1,595.552250483522,-29.5947739660196,"  805.95",456,4,1,1
"43",110,"right","SHINEd_mosquito.jpg","incongruent","n",536.818201,"f","f","left","(862, 362)",393,1,536.145156590294,-89.0018678592473,"  785.87",192,4,1,1
"43",111,"right","SHINEd_Pants_Firefighter.jpg","congruent","m",763.604141,"j","j","right","(862, 362)",1,1,763.178522697066,138.031498247525,"  759.20",104,4,1,1
"43",112,"left","SHINEd_Heater_Outdoor.jpg","incongruent","m",623.632253,"j","j","right","(148, 362)",170,1,623.454060803838,-1.69296364570296,"  899.97",264,4,1,1
"43",113,"right","SHINEd_Carabiner_Orange.jpg","congruent","m",467.235912,"j","j","right","(862, 362)",29,1,467.305145910611,-157.841878538931,"  575.00",438,4,1,1
"43",114,"left","SHINEd_mushroom_other.jpg","congruent","n",622.907143,"f","f","left","(148, 362)",426,1,623.223803017383,-1.92322143215852,"  882.20",32,4,1,1
"43",115,"right","SHINEd_Elephant.jpg","incongruent","n",722.424115,"f","f","left","(862, 362)",349,1,722.988201124155,97.8411766746137,"  975.55",198,3,0,0
"43",116,"right","SHINEd_Hat_Baseball.jpg","congruent","m",694.084584,"j","j","right","(862, 362)",189,1,694.896096230927,69.7490717813858," 4168.85",383,4,0,0
"43",117,"left","SHINEd_CasketOpen.jpg","incongruent","m",577.625016,"j","j","right","(148, 362)",218,1,578.683954337699,-46.463070111842," 2225.48",99,4,1,1
"43",118,"right","SHINEd_Vest.jpg","congruent","m",589.331046,"j","j","right","(862, 362)",5,1,590.637410444472,-34.5096140050697," 1981.94",16,4,1,1
"43",119,"left","SHINEd_airpump.jpg","incongruent","m",509.060399,"j","j","right","(148, 362)",114,1,510.614189551244,-114.532834898297,"  729.70",50,4,1,1
"43",120,"left","SHINEd_Grape.jpg","congruent","n",505.475692,"f","f","left","(148, 362)",274,1,507.276908658016,-117.870115791525,"  741.19",442,3,1,1
"43",121,"left","SHINEd_PictureFrame.jpg","incongruent","m",574.917116,"j","j","right","(148, 362)",222,1,576.965758764788,-48.1812656847531,"  556.15",265,4,1,1
"43",122,"right","SHINEd_Gloves_WhiteKnit.jpg","congruent","m",649.584581,"j","j","right","(862, 362)",197,1,651.88064987156,26.7336254220191,"  785.15",111,4,1,1
"43",123,"right","SHINEd_Bird_Eagle.jpg","incongruent","n",541.175129,"f","f","left","(862, 362)",257,1,543.718623978333,-81.4284004712087,"  872.51",130,4,0,0
"43",124,"right","SHINEd_cheetah.jpg","incongruent","n",554.480726,"f","f","left","(862, 362)",245,1,557.271647085105,-67.8753773644365,"  728.16",277,4,1,1
"43",125,"right","SHINEd_Bottle_Blue.jpg","congruent","m",773.126958,"j","j","right","(862, 362)",217,1,776.165305191877,151.018280742336," 3765.09",433,3,1,1
"43",126,"left","SHINEd_ClothCoaster.jpg","incongruent","m",658.464559,"j","j","right","(148, 362)",142,1,661.750332298649,36.6033078491079,"  704.76",313,3,0,0
"43",127,"left","SHINEd_scallion.jpg","congruent","n",573.052373,"f","f","left","(148, 362)",314,1,576.585572405421,-48.5614520441199,"  516.84",68,4,1,1
"43",128,"left","SHINEd_Slide.jpg","incongruent","m",520.526573,"j","j","right","(148, 362)",82,1,524.307198512194,-100.839825937348,"  606.47",144,4,1,1
"43",129,"left","SHINEd_skunk.jpg","congruent","n",669.183875,"f","f","left","(148, 362)",290,1,673.211926618966,48.0649021694245,"  870.26",377,2,1,NA
"43",130,"left","SHINEd_HairClip.jpg","incongruent","m",672.145889,"j","j","right","(148, 362)",194,1,676.421366725738,51.2743422761967,"  782.62",37,4,1,1
"43",131,"left","SHINEd_Bowl_Fruits.jpg","congruent","n",716.206289,"f","f","left","(148, 362)",434,1,720.72919283251,95.5821683829689," 1547.93",253,4,0,0
"43",132,"left","SHINEd_rabbitt.jpg","congruent","n",567.964474,"j","f","left","(148, 362)",350,0,572.734803939282,-52.4122205102589,"  631.21",41,4,1,1
"43",133,"right","SHINEd_Lilypad.jpg","incongruent","n",561.810053,"f","f","left","(862, 362)",413,1,566.827809046055,-58.3192154034866," 1247.75",379,3,0,0
"43",134,"right","SHINEd_Switch_LightWhite.jpg","congruent","m",494.997945,"j","j","right","(862, 362)",57,1,500.263127152827,-124.883897296714," 1017.04",260,2,1,NA
"43",135,"right","SHINEd_Toad.jpg","incongruent","n",513.02992,"f","f","left","(862, 362)",441,1,518.542528259599,-106.604496189942," 1754.01",354,3,1,1
"43",136,"right","SHINEd_red_panda.jpg","incongruent","n",550.004326,"f","f","left","(862, 362)",273,1,555.764360366371,-69.3826640831701,"  919.54",269,4,1,1
"43",137,"right","SHINEd_Desk_School.jpg","congruent","m",589.724128,"j","j","right","(862, 362)",201,1,595.731588473143,-29.4154359763979," 1695.18",345,3,0,0
"43",138,"right","SHINEd_Bleachers.jpg","congruent","m",729.881571,"j","j","right","(862, 362)",133,1,736.136457579916,110.989433130374,"  919.27",428,3,1,1
"43",139,"left","SHINEd_Bucket_Rusty.jpg","incongruent","m",862.162119,"j","j","right","(148, 362)",34,1,868.664431686688,243.517407237147," 1439.09",271,3,0,0
"43",140,"right","SHINEd_Saw.jpg","congruent","m",833.327924,"j","j","right","(862, 362)",33,1,840.07766279346,214.930638343919,"  812.02",349,3,1,1
"43",141,"left","SHINEd_Boardgame_Chess.jpg","incongruent","m",654.327479,"j","j","right","(148, 362)",86,1,661.324643900232,36.177619450691,"  773.86",226,4,1,1
"43",142,"left","SHINEd_Seashell_BayScallop.jpg","congruent","n",601.583332,"f","f","left","(148, 362)",270,1,608.827923007005,-16.3191014425368," 1869.20",244,2,1,NA
"43",143,"right","SHINEd_worm.jpg","incongruent","n",659.571276,"f","f","left","(862, 362)",389,1,667.063293113777,41.9162686642354,"  770.41",445,4,1,1
"43",144,"left","SHINEd_red_Cabbage.jpg","congruent","n",663.90609,"f","f","left","(148, 362)",230,1,671.645533220549,46.4985087710076," 1071.32",437,4,1,1
"43",145,"left","SHINEd_Ball_Basketball.jpg","incongruent","m",739.311917,"j","j","right","(148, 362)",130,1,747.298786327321,122.15176187778," 1406.45",450,3,0,0
"43",146,"left","SHINEd_Bicycle_Kids.jpg","incongruent","m",NA,"miss","j","right","(148, 362)",26,0,NA,NA,"  820.22",369,3,1,1
"43",147,"right","SHINEd_BowlingPin.jpg","congruent","m",531.208884,"j","j","right","(862, 362)",25,1,539.690605540865,-85.4564189086758," 2689.07",85,2,1,NA
"43",148,"left","SHINEd_ChalkboardEraser.jpg","incongruent","m",NA,"miss","j","right","(148, 362)",62,0,NA,NA,"  927.28",330,4,1,1
"43",149,"left","SHINEd_rose.jpg","congruent","n",483.425349,"f","f","left","(148, 362)",430,1,492.40192275441,-132.745101695131,"  632.22",40,4,1,1
"43",150,"right","SHINEd_ChainRusty.jpg","congruent","m",519.805073,"j","j","right","(862, 362)",21,1,529.029072861182,-96.1179515883592," 1005.71",221,4,0,0
"43",151,"right","SHINEd_BasketballHoop.jpg","congruent","m",475.68741,"j","j","right","(862, 362)",129,1,485.158835967954,-139.988188481587,"  868.27",421,4,1,1
"43",152,"left","SHINEd_Kite_Rainbow.jpg","incongruent","m",719.126619,"j","j","right","(148, 362)",78,1,728.845471074726,103.698446625185," 1841.22",416,3,0,0
"43",153,"left","SHINEd_Deodorant.jpg","incongruent","m",593.78183,"j","j","right","(148, 362)",118,1,603.748108181499,-21.3989162680425," 1367.64",325,3,0,0
"43",154,"right","SHINEd_Knife_Camping.jpg","congruent","m",676.799132,"j","j","right","(862, 362)",37,1,687.012836288271,61.8658118387296," 1182.79",331,4,1,1
"43",155,"right","SHINEd_Binder.jpg","congruent","m",490.117608,"j","j","right","(862, 362)",65,1,500.578738395043,-124.568286054498," 1134.66",351,3,0,0
"43",156,"left","SHINEd_wheat_stock.jpg","congruent","n",533.2198,"f","f","left","(148, 362)",358,1,543.928356501815,-81.218667947726,"  781.15",263,4,1,1
"43",157,"right","SHINEd_donkey.jpg","incongruent","n",753.392295,"j","f","left","(862, 362)",409,0,764.348277608588,139.201253159046,"  885.71",57,4,1,1
"43",158,"right","SHINEd_vanillabean copy.jpg","incongruent","n",NA,"miss","f","left","(862, 362)",329,0,NA,NA," 1365.17",413,3,1,1
"43",159,"right","SHINEd_DoorKnob.jpg","congruent","m",519.465241,"j","j","right","(862, 362)",53,1,530.916075822132,-94.2309486274093,"  667.74",211,4,1,1
"43",160,"right","SHINEd_Megaphone.jpg","congruent","m",548.849717,"j","j","right","(862, 362)",101,1,560.547977928904,-64.5990465206371," 1916.67",376,3,1,1
"43",161,"left","SHINEd_Cheesegrater_Handheld.jpg","incongruent","m",671.953174,"j","j","right","(148, 362)",162,1,683.898861035676,58.7518365861351,"  959.17",34,4,1,1
"43",162,"left","SHINEd_durian.jpg","congruent","n",619.76199,"f","f","left","(148, 362)",374,1,631.955103142448,6.80807869290726," 6292.91",220,3,0,0
"43",163,"right","SHINEd_Knee.jpg","incongruent","n",807.274629,"j","f","left","(862, 362)",309,0,819.715168249221,194.568143799679,"  760.59",185,4,1,1
"43",164,"left","SHINEd_Lips_Real.jpg","congruent","n",577.063826,"f","f","left","(148, 362)",390,1,589.751791355993,-35.3952330935484,"  708.96",181,4,1,1
"43",165,"left","SHINEd_accordion.jpg","incongruent","m",638.013548,"j","j","right","(148, 362)",10,1,650.948939462765,25.8019150132239," 1220.77",262,4,0,0
"43",166,"right","SHINEd_Corn.jpg","incongruent","n",900.317057,"f","f","left","(862, 362)",337,1,913.499874569537,288.352850119996,"  717.37",344,4,1,1
"43",167,"right","SHINEd_Kettle.jpg","congruent","m",589.469413,"j","j","right","(862, 362)",157,1,602.89965667631,-22.2473677732317,"  761.73",51,4,1,1
"43",168,"left","SHINEd_Calculator.jpg","incongruent","m",859.974082,"j","j","right","(148, 362)",94,1,873.651751783082,248.50472733354,"  582.34",59,4,1,1
"43",169,"right","SHINEd_BicycleChain.jpg","congruent","m",662.764247,"j","j","right","(862, 362)",17,1,676.689342889854,51.5423184403127,"  906.30",299,4,1,1
"43",170,"left","SHINEd_manatee.jpg","congruent","n",617.212123,"f","f","left","(148, 362)",342,1,631.384644996626,6.23762054708495,"  670.07",81,4,1,1
"43",171,"left","SHINEd_Flamingo_Real.jpg","congruent","n",630.010467,"f","f","left","(148, 362)",406,1,644.430415103398,19.2833906538571,"  892.97",393,3,1,1
"43",172,"left","SHINEd_LawnMower.jpg","incongruent","m",488.934062,"j","j","right","(148, 362)",46,1,503.601436210171,-121.545588239371," 1277.70",422,2,1,NA
"43",173,"left","SHINEd_Cherry.jpg","congruent","n",941.572683,"f","f","left","(148, 362)",258,1,956.487483316943,331.340458867402,"  711.74",346,3,1,1
"43",174,"right","SHINEd_Cloud.jpg","incongruent","n",NA,"miss","f","left","(862, 362)",385,0,NA,NA,"  616.14",112,4,1,1
"43",175,"right","SHINEd_DogHouse.jpg","congruent","m",517.181503,"j","j","right","(862, 362)",165,1,532.591155530487,-92.555868919054,"  732.89",189,4,1,1
"43",176,"left","SHINEd_Dog_CockerSpaniel.jpg","congruent","n",712.675556,"f","f","left","(148, 362)",306,1,728.332634637259,103.185610187718,"  903.63",29,4,1,1
"43",177,"left","SHINEd_Bathtub.jpg","incongruent","m",515.998117,"j","j","right","(148, 362)",58,1,531.902621744032,-93.2444027055097," 1317.56",21,4,1,1
"43",178,"right","SHINEd_MusicSheet.jpg","congruent","m",574.452489,"j","j","right","(862, 362)",13,1,590.604419850804,-34.5426045987374,"  685.33",409,4,0,0
"43",179,"right","SHINEd_Snail.jpg","incongruent","n",649.43306,"j","f","left","(862, 362)",241,0,665.832416957576,40.6853925080347," 2419.76",201,4,1,1
"43",180,"left","SHINEd_Dog_Bulldog.jpg","congruent","n",421.810175,"f","f","left","(148, 362)",326,1,438.456958064348,-186.690066385193,"  640.54",73,4,1,1
"43",181,"right","SHINEd_FileDivider.jpg","congruent","m",370.69456,"j","j","right","(862, 362)",69,1,387.58876917112,-237.558255278421,"  945.07",385,4,1,1
"43",182,"left","SHINEd_Glove_Rubber.jpg","incongruent","m",702.417861,"j","j","right","(148, 362)",138,1,719.559496277893,94.4124718283514," 1325.22",408,3,0,0
"43",183,"left","SHINEd_Gecko.jpg","congruent","n",585.031588,"f","f","left","(148, 362)",370,1,602.420649384665,-22.7263750648764,"  574.13",358,4,1,1
"43",184,"left","SHINEd_RollerBlade.jpg","incongruent","m",533.225055,"j","j","right","(148, 362)",178,1,550.861542491437,-74.2854819581042,"  797.77",373,4,1,1
"43",185,"left","SHINEd_Starfish.jpg","congruent","n",NA,"miss","f","left","(148, 362)",378,0,NA,NA,"  622.28",419,4,1,1
"43",186,"left","SHINEd_Car_Vintage.jpg","incongruent","m",491.98855,"j","j","right","(148, 362)",186,1,510.119889704981,-115.02713474456,"  925.00",93,4,1,1
"43",187,"right","SHINEd_Gum_Pack.jpg","congruent","m",583.875075,"j","j","right","(862, 362)",77,1,602.253840811754,-22.8931836377876,"  735.37",314,4,1,1
"43",188,"left","SHINEd_Mirror_Makeup.jpg","incongruent","m",597.045167,"j","j","right","(148, 362)",122,1,615.671358918526,-9.4756655310154,"  767.01",254,4,1,1
"43",189,"left","SHINEd_Bugle.jpg","incongruent","m",463.170074,"j","j","right","(148, 362)",14,1,482.043692025298,-143.103332424243," 3007.13",207,3,1,1
"43",190,"right","SHINEd_Bowl_Wooden.jpg","congruent","m",467.205336,"j","j","right","(862, 362)",141,1,486.32638013207,-138.820644317471,"  750.64",79,4,1,1
"43",191,"right","SHINEd_Clock_Radio.jpg","congruent","m",436.188429,"j","j","right","(862, 362)",93,1,455.556899238843,-169.590125210699,"  847.36",127,4,1,1
"43",192,"left","SHINEd_Cane_Metal.jpg","incongruent","m",424.077726,"j","j","right","(148, 362)",190,1,443.693622345615,-181.453402103927,"  851.93",280,3,0,0
"43",193,"right","SHINEd_cottonplant.jpg","incongruent","n",836.584959,"f","f","left","(862, 362)",297,1,856.448281452387,231.301257002846," 1214.14",151,3,0,0
"43",194,"right","SHINEd_BusStop.jpg","congruent","m",630.87543,"j","j","right","(862, 362)",145,1,650.986178559159,25.8391541096179," 1217.25",90,2,1,NA
"43",195,"left","SHINEd_PencilSharpener.jpg","incongruent","m",729.908489,"j","j","right","(148, 362)",74,1,750.266663665931,125.11963921639,"  926.59",322,4,1,1
"43",196,"right","SHINEd_Crown.jpg","congruent","m",518.381299,"j","j","right","(862, 362)",193,1,538.986899772704,-86.1601246768377,"  831.52",306,4,1,1
"43",197,"right","SHINEd_Chair_High.jpg","congruent","m",458.61525,"j","j","right","(862, 362)",209,1,479.468276879476,-145.678747570066," 1243.78",362,3,1,1
"43",198,"left","SHINEd_volcano copy.jpg","congruent","n",751.65017,"j","f","left","(148, 362)",234,0,772.750622986248,147.603598536707,"  735.59",38,4,1,1
"43",199,"right","SHINEd_Collards.jpg","incongruent","n",595.347858,"f","f","left","(862, 362)",445,1,616.69573709302,-8.45128735652116,"  630.60",182,4,1,1
"43",200,"left","SHINEd_honeydew.jpg","congruent","n",558.498857,"f","f","left","(148, 362)",330,1,580.094162199792,-45.0528622497489," 1247.16",311,3,0,0
"43",201,"right","SHINEd_Cabinet_Display.jpg","congruent","m",514.130095,"j","j","right","(862, 362)",205,1,535.972826306565,-89.1741981429767," 1430.08",166,3,0,0
"43",202,"right","SHINEd_Broccoli.jpg","incongruent","n",526.775786,"f","f","left","(862, 362)",253,1,548.865943413337,-76.2810810362045,"  596.79",149,4,1,1
"43",203,"right","SHINEd_Mitt_Oven.jpg","congruent","m",555.494275,"j","j","right","(862, 362)",137,1,577.831858520109,-47.3151659294323,"  621.72",49,4,1,1
"43",204,"left","SHINEd_peacockfeather.jpg","congruent","n",573.76953,"f","f","left","(148, 362)",382,1,596.354539626881,-28.7924848226601,"  878.93",238,4,1,1
"43",205,"left","SHINEd_Jacket_Suit.jpg","incongruent","m",792.887304,"j","j","right","(148, 362)",2,1,815.719739733653,190.572715284112," 1166.39",26,4,1,1
"43",206,"right","SHINEd_Pineapple.jpg","incongruent","n",676.088121,"f","f","left","(862, 362)",353,1,699.167982840426,74.0209583908843,"  934.64",292,4,1,1
"43",207,"left","SHINEd_ladybug.jpg","congruent","n",NA,"miss","f","left","(148, 362)",238,0,NA,NA,"  591.05",154,4,1,1
"43",208,"left","SHINEd_Beater_Electric.jpg","incongruent","m",796.911481,"j","j","right","(148, 362)",42,1,820.48619505397,195.339170604429,"12278.97",455,3,0,0
"43",209,"left","SHINEd_LightHouse.jpg","incongruent","m",NA,"miss","j","right","(148, 362)",146,0,NA,NA," 3397.24",395,3,1,1
"43",210,"left","SHINEd_Currants.jpg","congruent","n",792.10734,"f","f","left","(148, 362)",254,1,816.176906267514,191.029881817973," 1319.04",71,4,1,1
"43",211,"left","SHINEd_fox.jpg","congruent","n",548.108978,"f","f","left","(148, 362)",334,1,572.425970374287,-52.7210540752547,"  662.69",61,4,1,1
"43",212,"right","SHINEd_Branch.jpg","incongruent","n",727.126772,"f","f","left","(862, 362)",333,1,751.691190481059,126.544166031517," 1980.67",338,3,0,0
"43",213,"right","SHINEd_Fish_Rockbass.jpg","incongruent","n",522.263494,"f","f","left","(862, 362)",341,1,547.075338587831,-78.0716858617102," 1452.68",13,3,1,1
"43",214,"left","SHINEd_Nuts_Walnut.jpg","congruent","n",478.04975,"f","f","left","(148, 362)",446,1,503.109020694603,-122.038003754938,"  870.20",143,4,1,1
"43",215,"right","SHINEd_Leg.jpg","incongruent","n",608.376692,"j","f","left","(862, 362)",405,0,633.683388801375,8.53636435183419,"  612.73",133,4,1,1
"43",216,"right","SHINEd_rhino horn.jpg","incongruent","n",836.22047,"j","f","left","(862, 362)",249,0,861.774592908148,236.627568458606,"  685.76",324,4,1,1
"43",217,"left","SHINEd_BearPolar.jpg","congruent","n",567.759742,"f","f","left","(148, 362)",386,1,593.56129101492,-31.5857334346215,"  686.82",27,4,1,1
"43",218,"left","SHINEd_Hourglass.jpg","incongruent","m",595.936942,"j","j","right","(148, 362)",110,1,621.985917121692,-3.1611073278492," 1493.10",72,3,1,1
"43",219,"right","SHINEd_Mango.jpg","incongruent","n",567.819255,"f","f","left","(862, 362)",277,1,594.115656228464,-31.031368221077," 1932.33",3,3,1,1
"43",220,"left","SHINEd_Cranberry.jpg","congruent","n",587.757373,"f","f","left","(148, 362)",398,1,614.301200335236,-10.8458241143048,"  699.98",443,4,1,1
"43",221,"left","SHINEd_spinach.jpg","congruent","n",455.351427,"f","f","left","(148, 362)",266,1,482.142680442009,-143.004344007533," 1757.17",240,4,1,1
"43",222,"right","SHINEd_ShoppingCart.jpg","congruent","m",586.435709,"j","j","right","(862, 362)",109,1,613.474388548781,-11.6726359007604," 1193.45",390,3,0,0
"43",223,"right","SHINEd_Jetski.jpg","congruent","m",687.13678,"j","j","right","(862, 362)",181,1,714.422885655553,89.2758612060118,"  956.76",179,4,1,1
"43",224,"right","SHINEd_pumpkinseeds-.jpg","incongruent","n",NA,"miss","f","left","(862, 362)",237,0,NA,NA,"  810.13",92,4,1,1
"43",225,"left","SHINEd_Scooter.jpg","incongruent","m",558.096981,"j","j","right","(148, 362)",174,1,585.877938869098,-39.2690855804438," 2478.12",108,2,0,0
"43",226,"right","SHINEd_Cannon.jpg","congruent","m",536.415666,"j","j","right","(862, 362)",61,1,564.44404997587,-60.7029744736716," 1391.42",268,4,1,1
"43",227,"left","SHINEd_Ball_Bowling.jpg","incongruent","m",724.153395,"f","j","right","(148, 362)",134,0,752.429205082642,127.282180633101," 1702.59",17,4,1,1
"43",228,"left","SHINEd_USBKey.jpg","incongruent","m",703.40514,"j","j","right","(148, 362)",90,1,731.928376189414,106.781351739873," 1114.76",355,4,1,1
