"participant","trial_index","screenposition","stimulus","trialtype","classifyenc","rt","response","responsecorrect","responsecorrect_side","screenlocation","stimnum","acc","rtResidual","rtResidualC","rt_rec","trialno_rec","ratingConfidence","acc_rec","memoryHits.hc"
"49",1,"right","SHINEd_greenapple.jpg","incongruent","n",850.305995,"f","f","left","(862, 362)",410,1,855.559813343747,132.353437373748," 3006.16",68,3,0,0
"49",2,"left","SHINEd_cheetah.jpg","congruent","n",NA,"miss","f","left","(148, 362)",245,0,NA,NA," 1094.85",199,3,0,0
"49",3,"left","SHINEd_Giraffe.jpg","congruent","n",609.418042,"f","f","left","(148, 362)",381,1,614.579756765819,-108.62661920418," 1720.67",236,3,1,1
"49",4,"right","SHINEd_raccoon.jpg","incongruent","n",654.316401,"f","f","left","(862, 362)",262,1,659.432063976857,-63.7743119931426," 1493.84",26,4,1,1
"49",5,"right","SHINEd_airpump.jpg","congruent","m",714.376604,"j","j","right","(862, 362)",114,1,719.446215187895,-3.76016078210476," 1401.99",102,3,1,1
"49",6,"right","SHINEd_BearPolar.jpg","incongruent","n",590.0387,"j","f","left","(862, 362)",386,0,595.062259398933,-128.144116571067,"  748.89",438,3,0,0
"49",7,"right","SHINEd_ClothCoaster.jpg","congruent","m",732.509096,"f","j","right","(862, 362)",142,0,737.486603609971,14.280227639971," 1229.42",222,3,1,1
"49",8,"left","SHINEd_Vase_Decorative copy.jpg","incongruent","m",680.365492,"j","j","right","(148, 362)",221,1,685.296947821009,-37.9094281489912," 1253.23",403,3,1,1
"49",9,"right","SHINEd_accordion.jpg","congruent","m",637.256745,"j","j","right","(862, 362)",10,1,642.142149032047,-81.0642269379533,"  933.14",413,3,1,1
"49",10,"left","SHINEd_Camera_Video.jpg","incongruent","m",593.409532,"j","j","right","(148, 362)",97,1,598.248884243085,-124.957491726915," 6838.10",14,2,1,NA
"49",11,"left","SHINEd_Knee.jpg","congruent","n",806.429901,"f","f","left","(148, 362)",309,1,811.223201454122,88.0168254841224,"  773.96",265,3,1,1
"49",12,"left","SHINEd_Saw.jpg","incongruent","m",657.789454,"j","j","right","(148, 362)",33,1,662.53670266516,-60.6696733048397," 2343.15",80,4,1,1
"49",13,"left","SHINEd_whale.jpg","congruent","n",766.134794,"f","f","left","(148, 362)",421,1,770.835990876198,47.6296149061983," 2230.20",263,3,1,1
"49",14,"right","SHINEd_Grape.jpg","incongruent","n",595.075573,"f","f","left","(862, 362)",274,1,599.730718087236,-123.475657882764," 1350.52",41,4,1,1
"49",15,"right","SHINEd_Nail.jpg","congruent","m",655.60614,"j","j","right","(862, 362)",38,1,660.215233298274,-62.991142671726,"  725.82",258,3,1,1
"49",16,"left","SHINEd_HairDryer.jpg","incongruent","m",714.382885,"j","j","right","(148, 362)",45,1,718.945926509312,-4.26044946068816," 3133.22",2,4,1,1
"49",17,"right","SHINEd_ChalkboardEraser.jpg","congruent","m",903.185949,"j","j","right","(862, 362)",62,1,907.70293872035,184.49656275035,"  909.68",144,3,1,1
"49",18,"right","SHINEd_Cherry.jpg","incongruent","n",707.013658,"f","f","left","(862, 362)",258,1,711.484595931388,-11.7217800386124," 1813.26",392,3,0,0
"49",19,"right","SHINEd_Starfish.jpg","incongruent","n",881.941154,"f","f","left","(862, 362)",378,1,886.366040142425,163.159664172425," 1673.36",251,3,0,0
"49",20,"left","SHINEd_artichoke.jpg","congruent","n",NA,"miss","f","left","(148, 362)",453,0,NA,NA," 1169.61",168,4,1,1
"49",21,"left","SHINEd_BasketballHoop.jpg","incongruent","m",577.526591,"j","j","right","(148, 362)",129,1,581.859373564501,-141.347002405499," 1256.23",30,4,1,1
"49",22,"right","SHINEd_durian.jpg","incongruent","n",658.826007,"f","f","left","(862, 362)",374,1,663.112737775539,-60.0936381944609," 6582.42",78,3,1,1
"49",23,"right","SHINEd_Ball_Bowling.jpg","congruent","m",767.121251,"j","j","right","(862, 362)",134,1,771.361929986577,48.155554016577," 1573.82",125,4,1,1
"49",24,"right","SHINEd_Lips_Real.jpg","incongruent","n",714.784035,"f","f","left","(862, 362)",390,1,718.978662197615,-4.22771377238511," 1446.67",83,4,1,1
"49",25,"left","SHINEd_Broccoli.jpg","congruent","n",935.815854,"f","f","left","(148, 362)",253,1,939.964429408653,216.758053438653,"  977.55",94,4,1,1
"49",26,"right","SHINEd_scallion.jpg","incongruent","n",693.049075,"f","f","left","(862, 362)",314,1,697.151598619691,-26.0547773503093,"  991.09",242,3,1,1
"49",27,"left","SHINEd_Fish_Rockbass.jpg","congruent","n",704.398228,"f","f","left","(148, 362)",341,1,708.454699830728,-14.7516761392715," 1119.39",391,2,1,NA
"49",28,"left","SHINEd_Elephant.jpg","congruent","n",628.741663,"f","f","left","(148, 362)",349,1,632.752083041766,-90.4542929282336," 5856.08",131,3,0,0
"49",29,"right","SHINEd_rabbitt.jpg","incongruent","n",791.788088,"f","f","left","(862, 362)",350,1,795.752456252804,72.5460802828043," 1654.82",349,3,0,0
"49",30,"right","SHINEd_Scooter.jpg","congruent","m",779.969997,"j","j","right","(862, 362)",174,1,783.888313463842,60.6819374938422," 1284.87",411,3,0,0
"49",31,"left","SHINEd_BicycleChain.jpg","incongruent","m",783.463405,"f","j","right","(148, 362)",17,0,787.33566967488,64.12929370488," 1678.32",248,3,0,0
"49",32,"left","SHINEd_MusicSheet.jpg","incongruent","m",NA,"miss","j","right","(148, 362)",13,0,NA,NA,"  885.81",304,3,1,1
"49",33,"left","SHINEd_pumpkinseeds-.jpg","congruent","n",961.428965,"f","f","left","(148, 362)",237,1,965.209126096956,242.002750126956," 1111.34",450,3,1,1
"49",34,"left","SHINEd_Cannon.jpg","incongruent","m",550.717219,"j","j","right","(148, 362)",61,1,554.451328307994,-168.755047662006," 1495.73",22,4,1,1
"49",35,"left","SHINEd_donkey.jpg","congruent","n",763.278729,"f","f","left","(148, 362)",409,1,766.966786519032,43.7604105490315,"  591.12",426,3,0,0
"49",36,"left","SHINEd_FileDivider.jpg","incongruent","m",790.772272,"j","j","right","(148, 362)",69,1,794.414277730069,71.2079017600694," 3880.82",316,3,1,1
"49",37,"left","SHINEd_rhino horn.jpg","congruent","n",658.943059,"f","f","left","(148, 362)",249,1,662.539012941107,-60.6673630288928," 1066.58",36,4,1,1
"49",38,"left","SHINEd_Magnifying_Glass.jpg","incongruent","m",831.590537,"j","j","right","(148, 362)",105,1,835.140439152145,111.934063182145," 1318.27",285,3,1,1
"49",39,"left","SHINEd_Lilypad.jpg","congruent","n",NA,"miss","f","left","(148, 362)",413,0,NA,NA," 2086.44",246,3,1,1
"49",40,"right","SHINEd_Bowl_Fruits.jpg","incongruent","n",960.62414,"f","f","left","(862, 362)",434,1,964.081938574221,240.875562604221," 1052.80",399,3,0,0
"49",41,"right","SHINEd_Heater_Outdoor.jpg","congruent","m",NA,"miss","j","right","(862, 362)",170,0,NA,NA," 1647.84",402,3,0,0
"49",42,"right","SHINEd_treestump.jpg","incongruent","n",793.455088,"f","f","left","(862, 362)",414,1,796.820782996297,73.6144070262967," 1109.94",207,3,1,1
"49",43,"left","SHINEd_Collards.jpg","congruent","n",767.436372,"f","f","left","(148, 362)",445,1,770.756015207334,47.5496392373346," 1143.04",65,4,1,1
"49",44,"right","SHINEd_honeydew.jpg","incongruent","n",618.174613,"f","f","left","(862, 362)",330,1,621.448204418372,-101.758171551628," 2311.07",123,3,0,0
"49",45,"left","SHINEd_Ruler_Wooden.jpg","incongruent","m",735.413415,"f","j","right","(148, 362)",73,0,738.64095462941,15.4345786594103,"  775.27",164,4,1,1
"49",46,"right","SHINEd_RollerBlade.jpg","congruent","m",745.979342,"j","j","right","(862, 362)",178,1,749.160829840448,25.9544538704482," 3310.96",415,3,0,0
"49",47,"right","SHINEd_hyena.jpg","incongruent","n",NA,"miss","f","left","(862, 362)",422,0,NA,NA," 1225.74",454,3,0,0
"49",48,"right","SHINEd_avocado.jpg","incongruent","n",NA,"miss","f","left","(862, 362)",394,0,NA,NA," 2262.79",294,3,1,1
"49",49,"right","SHINEd_Kite_Rainbow.jpg","congruent","m",NA,"miss","j","right","(862, 362)",78,0,NA,NA," 1582.46",52,4,1,1
"49",50,"left","SHINEd_Escalator.jpg","incongruent","m",502.55598,"j","j","right","(148, 362)",177,1,505.5532606846,-217.6531152854," 1254.07",303,3,0,0
"49",51,"left","SHINEd_dinosaur fossil.jpg","congruent","n",NA,"miss","f","left","(148, 362)",377,0,NA,NA," 2365.10",406,3,1,1
"49",52,"right","SHINEd_Cheesegrater_Handheld.jpg","congruent","m",830.588046,"j","j","right","(862, 362)",162,1,833.493223106675,110.286847136675," 1831.32",197,1,0,0
"49",53,"right","SHINEd_Nuts_Pecan.jpg","incongruent","n",NA,"miss","f","left","(862, 362)",246,0,NA,NA," 1128.82",296,3,1,1
"49",54,"right","SHINEd_Briefcase_Leather.jpg","congruent","m",767.441064,"j","j","right","(862, 362)",210,1,770.254137528751,47.0477615587512," 1245.94",300,3,0,0
"49",55,"left","SHINEd_RecordPlayer.jpg","incongruent","m",643.163463,"f","j","right","(148, 362)",149,0,645.930484739789,-77.2758912302109," 6774.34",422,3,0,0
"49",56,"right","SHINEd_Radish.jpg","incongruent","n",736.203426,"f","f","left","(862, 362)",242,1,738.924395950827,15.718019980827," 1372.26",367,3,0,0
"49",57,"left","SHINEd_Paw.jpg","congruent","n",651.578053,"f","f","left","(148, 362)",301,1,654.252971161865,-68.9534048081352," 2175.86",113,4,1,1
"49",58,"left","SHINEd_Colander.jpg","incongruent","m",586.636771,"j","j","right","(148, 362)",41,1,589.265637372903,-133.940738597097," 1390.98",4,4,1,1
"49",59,"left","SHINEd_worm.jpg","congruent","n",859.239754,"f","f","left","(148, 362)",389,1,861.822568583941,138.616192613941," 1063.01",238,3,0,0
"49",60,"right","SHINEd_Lynx.jpg","incongruent","n",591.232638,"j","f","left","(862, 362)",438,0,593.769400794978,-129.436975175022," 1254.83",119,3,1,1
"49",61,"left","SHINEd_ShoppingCart.jpg","incongruent","m",470.223706,"j","j","right","(148, 362)",109,1,472.714417006016,-250.491958963984," 1063.49",139,3,1,1
"49",62,"right","SHINEd_Mirror_Makeup.jpg","congruent","m",624.739213,"j","j","right","(862, 362)",122,1,627.183872217054,-96.0225037529458,"  757.11",245,3,1,1
"49",63,"left","SHINEd_Gum_Pack.jpg","incongruent","m",715.565172,"f","j","right","(148, 362)",77,0,717.963779428092,-5.24259654190793," 1296.16",191,3,1,1
"49",64,"right","SHINEd_Lipstick.jpg","congruent","m",928.640179,"j","j","right","(862, 362)",198,1,930.99273463913,207.78635866913," 1047.48",221,3,0,0
"49",65,"right","SHINEd_fox.jpg","incongruent","n",692.173034,"f","f","left","(862, 362)",334,1,694.479537850168,-28.7268381198321," 4478.65",379,3,1,1
"49",66,"right","SHINEd_Slippers.jpg","congruent","m",640.995454,"j","j","right","(862, 362)",154,1,643.255906061206,-79.9504699087943," 3784.87",224,3,1,1
"49",67,"left","SHINEd_fountain.jpg","incongruent","m",781.133694,"j","j","right","(148, 362)",169,1,783.348094272244,60.1417183022436,"  962.20",281,3,0,0
"49",68,"right","SHINEd_lotusroot.jpg","incongruent","n",682.820108,"f","f","left","(862, 362)",298,1,684.988456483281,-38.2179194867185," 1007.77",81,4,1,1
"49",69,"right","SHINEd_Jacket_Suit.jpg","congruent","m",647.156552,"j","j","right","(862, 362)",2,1,649.278848694319,-73.9275272756806,"  845.95",233,3,1,1
"49",70,"left","SHINEd_Desk_School.jpg","incongruent","m",772.364709,"f","j","right","(148, 362)",201,0,774.440953905357,51.2345779353572,"  631.61",330,3,0,0
"49",71,"right","SHINEd_Hourglass.jpg","congruent","m",558.438759,"j","j","right","(862, 362)",110,1,560.468952116395,-162.737423853605," 1622.84",301,3,0,0
"49",72,"left","SHINEd_Gametable_AirHockey.jpg","incongruent","m",770.106085,"j","j","right","(148, 362)",85,1,772.090226327433,48.883850357433," 1023.81",377,3,0,0
"49",73,"right","SHINEd_Box_Notepaper.jpg","congruent","m",688.535147,"j","j","right","(862, 362)",70,1,690.473236538471,-32.7331394315291,"  662.56",210,3,1,1
"49",74,"right","SHINEd_Goat.jpg","incongruent","n",699.859073,"f","f","left","(862, 362)",322,1,701.751110749509,-21.4552652204913," 1238.08",433,3,0,0
"49",75,"left","SHINEd_horse.jpg","congruent","n",440.009343,"f","f","left","(148, 362)",269,1,441.855328960547,-281.351047009453,"  991.36",110,3,1,1
"49",76,"left","SHINEd_Corn.jpg","congruent","n",781.189916,"j","f","left","(148, 362)",337,0,782.989850171585,59.7834742015846," 1151.44",249,3,1,1
"49",77,"right","SHINEd_skeleton-lizard.jpg","incongruent","n",688.07202,"f","f","left","(862, 362)",250,1,689.825902382622,-33.3804735873777," 3918.60",185,3,1,1
"49",78,"left","SHINEd_okapi.jpg","congruent","n",NA,"miss","f","left","(148, 362)",425,0,NA,NA," 2662.03",151,3,0,0
"49",79,"right","SHINEd_skunk.jpg","incongruent","n",745.251146,"f","f","left","(862, 362)",290,1,746.912924804698,23.7065488346981," 1390.52",106,3,1,1
"49",80,"right","SHINEd_Bugle.jpg","congruent","m",694.424381,"f","j","right","(862, 362)",14,0,696.040108015736,-27.1662679542639," 1791.44",11,4,1,1
"49",81,"right","SHINEd_antlers.jpg","incongruent","n",762.344235,"f","f","left","(862, 362)",418,1,763.913910226774,40.7075342567739," 2270.24",208,3,1,1
"49",82,"right","SHINEd_couch.jpg","congruent","m",678.129566,"j","j","right","(862, 362)",202,1,679.653189437812,-43.5531865321882,"  884.11",428,3,1,1
"49",83,"left","SHINEd_Gloves_WhiteKnit.jpg","incongruent","m",825.258261,"j","j","right","(148, 362)",197,1,826.73583264885,103.52945667885," 1037.27",409,3,1,1
"49",84,"left","SHINEd_Bird_Parrot.jpg","congruent","n",679.494304,"f","f","left","(148, 362)",233,1,680.925823859888,-42.2805521101124," 1118.89",325,3,0,0
"49",85,"left","SHINEd_Pants_Firefighter.jpg","incongruent","m",825.813323,"j","j","right","(148, 362)",1,1,827.198791070925,103.992415100925," 1160.15",200,3,1,1
"49",86,"left","SHINEd_koala.jpg","congruent","n",NA,"miss","f","left","(148, 362)",365,0,NA,NA,"11136.28",100,1,1,NA
"49",87,"right","SHINEd_PictureFrame.jpg","congruent","m",708.744623,"j","j","right","(862, 362)",222,1,710.037987493001,-13.1683884769988,"  678.00",376,3,0,0
"49",88,"right","SHINEd_Nuts_Walnut.jpg","incongruent","n",704.696738,"f","f","left","(862, 362)",446,1,705.944050704039,-17.262325265961," 1222.43",132,3,1,1
"49",89,"left","SHINEd_Cloud.jpg","congruent","n",589.399213,"f","f","left","(148, 362)",385,1,590.600473915077,-132.605902054923," 1605.15",16,4,1,1
"49",90,"left","SHINEd_DoorKnob.jpg","incongruent","m",651.450816,"j","j","right","(148, 362)",53,1,652.606025126115,-70.6003508438852,"  791.74",356,3,1,1
"49",91,"right","SHINEd_ladybug.jpg","incongruent","n",768.978016,"f","f","left","(862, 362)",238,1,770.087173337153,46.8807973671527," 2588.67",398,3,0,0
"49",92,"right","SHINEd_Boardgame_Chess.jpg","congruent","m",723.108829,"j","j","right","(862, 362)",86,1,724.171934548191,0.965558578190581," 1246.64",189,3,1,1
"49",93,"right","SHINEd_eucalyptus.jpg","incongruent","n",NA,"miss","f","left","(862, 362)",282,0,NA,NA," 1710.28",204,3,1,1
"49",94,"right","SHINEd_Helmet_Bicycle.jpg","congruent","m",674.002403,"j","j","right","(862, 362)",18,1,674.973404970266,-48.2329709997337," 4318.82",170,3,1,1
"49",95,"left","SHINEd_Makeup_Compact.jpg","incongruent","m",716.809251,"j","j","right","(148, 362)",121,1,717.734201181304,-5.47217478869578,"  881.26",85,4,1,1
"49",96,"right","SHINEd_pomegrant.jpg","incongruent","n",803.547954,"j","f","left","(862, 362)",354,0,804.426852392342,81.2204764223421,"  711.11",395,3,0,0
"49",97,"right","SHINEd_Ball_Basketball.jpg","congruent","m",839.483579,"j","j","right","(862, 362)",130,1,840.31642560338,117.11004963338," 1540.00",362,3,1,1
"49",98,"right","SHINEd_mushroom_other.jpg","incongruent","n",795.976978,"f","f","left","(862, 362)",426,1,796.763772814418,73.5573968444179," 2709.11",435,3,0,0
"49",99,"right","SHINEd_Car_Vintage.jpg","congruent","m",NA,"miss","j","right","(862, 362)",186,0,NA,NA,"  839.01",424,3,0,0
"49",100,"right","SHINEd_wheat_stock.jpg","incongruent","n",NA,"miss","f","left","(862, 362)",358,0,NA,NA," 4815.84",101,2,1,NA
"49",101,"left","SHINEd_DentalFloss.jpg","incongruent","m",790.534083,"j","j","right","(148, 362)",117,1,791.182722447531,67.9763464775315," 1000.38",148,3,1,1
"49",102,"right","SHINEd_Flashlight.jpg","congruent","m",611.090463,"j","j","right","(862, 362)",98,1,611.693050658569,-111.513325311431," 1069.97",214,3,0,0
"49",103,"right","SHINEd_spinach.jpg","incongruent","n",765.518841,"f","f","left","(862, 362)",266,1,766.075376869607,42.8690008996072,"  800.77",382,3,0,0
"49",104,"left","SHINEd_soil.jpg","congruent","n",588.072764,"f","f","left","(148, 362)",289,1,588.583248080645,-134.623127889355," 1312.50",241,3,1,1
"49",105,"left","SHINEd_Snail.jpg","congruent","n",741.958755,"f","f","left","(148, 362)",241,1,742.423187291683,19.216811321683," 1036.54",192,3,1,1
"49",106,"right","SHINEd_Feet.jpg","incongruent","n",810.433684,"f","f","left","(862, 362)",310,1,810.852064502721,87.6456885327208," 1615.88",37,4,1,1
"49",107,"left","SHINEd_Branch.jpg","congruent","n",871.510029,"j","f","left","(148, 362)",333,0,871.882357713759,148.675981743759,"  702.93",345,3,0,0
"49",108,"right","SHINEd_red_Cabbage.jpg","incongruent","n",NA,"miss","f","left","(862, 362)",230,0,NA,NA," 1709.66",449,3,1,1
"49",109,"right","SHINEd_Bathtub.jpg","congruent","m",584.128595,"j","j","right","(862, 362)",58,1,584.408820135835,-138.797555834165," 4285.91",116,4,1,1
"49",110,"right","SHINEd_Dog_Bulldog.jpg","incongruent","n",972.216059,"f","f","left","(862, 362)",326,1,972.450232346872,249.243856376872," 1183.98",40,4,1,1
"49",111,"right","SHINEd_Bucket_Rusty.jpg","congruent","m",760.563688,"j","j","right","(862, 362)",34,1,760.75180955791,37.5454335879102," 3423.03",404,3,1,1
"49",112,"right","SHINEd_Currants.jpg","incongruent","n",710.709889,"f","f","left","(862, 362)",254,1,710.851958768948,-12.3544172010519," 1232.17",147,3,0,0
"49",113,"left","SHINEd_Leek.jpg","congruent","n",722.273421,"f","f","left","(148, 362)",357,1,722.369438979986,-0.836936990014014," 1134.67",137,3,1,1
"49",114,"left","SHINEd_mosquito.jpg","congruent","n",806.275864,"j","f","left","(148, 362)",393,0,806.325830191024,83.1194542210238," 1439.78",58,4,1,1
"49",115,"left","SHINEd_Bowl_Wooden.jpg","incongruent","m",972.570216,"f","j","right","(148, 362)",141,0,972.574130402062,249.367754432062," 1097.09",194,3,1,1
"49",116,"right","SHINEd_Beater_Electric.jpg","congruent","m",880.279717,"j","j","right","(862, 362)",42,1,880.2375796131,157.0312036431," 1141.62",187,3,1,1
"49",117,"left","SHINEd_Jetski.jpg","incongruent","m",668.683466,"j","j","right","(148, 362)",181,1,668.595276824137,-54.6110991458625," 1374.59",127,3,1,1
"49",118,"left","SHINEd_dragonfruit.jpg","congruent","n",649.293999,"f","f","left","(148, 362)",437,1,649.159758035175,-74.0466179348246," 1981.43",456,3,0,0
"49",119,"right","SHINEd_Cat.jpg","incongruent","n",596.771627,"f","f","left","(862, 362)",362,1,596.591334246213,-126.615041723787," 1062.26",420,3,0,0
"49",120,"right","SHINEd_Fryingpan.jpg","congruent","m",560.6368,"j","j","right","(862, 362)",158,1,560.410455457251,-162.795920512749,"  959.68",256,3,0,0
"49",121,"right","SHINEd_Gecko.jpg","incongruent","n",780.401023,"f","f","left","(862, 362)",370,1,780.128626668289,56.922250698289," 2181.77",338,3,1,1
"49",122,"left","SHINEd_red_panda.jpg","congruent","n",568.079772,"f","f","left","(148, 362)",273,1,567.761323879327,-155.445052090673," 1134.05",393,3,1,1
"49",123,"left","SHINEd_Cabinet_Display.jpg","incongruent","m",860.577838,"j","j","right","(148, 362)",205,1,860.213338090365,137.006962120365,"  967.71",32,4,1,1
"49",124,"left","SHINEd_Drum_Bongos.jpg","incongruent","m",554.154058,"j","j","right","(148, 362)",9,1,553.743506301403,-169.462869668597,"  718.47",150,3,1,1
"49",125,"left","SHINEd_goldenberry.jpg","congruent","n",655.689577,"f","f","left","(148, 362)",397,1,655.23297351244,-67.9734024575595," 2957.85",283,3,0,0
"49",126,"right","SHINEd_Tomato.jpg","incongruent","n",507.282464,"f","f","left","(862, 362)",450,1,506.779808723478,-216.426567246522,"  975.26",84,4,1,1
"49",127,"left","SHINEd_Dog_ChowChow.jpg","congruent","n",855.351188,"f","f","left","(148, 362)",369,1,854.802480934516,131.596104964516,"  832.08",278,3,0,0
"49",128,"left","SHINEd_Pacifier.jpg","incongruent","m",965.189198,"j","j","right","(148, 362)",81,1,964.594439145554,241.388063175554," 4294.55",153,3,1,1
"49",129,"right","SHINEd_Slide.jpg","congruent","m",609.134794,"j","j","right","(862, 362)",82,1,608.493983356592,-114.712392613408," 1671.97",24,4,1,1
"49",130,"left","SHINEd_Knife_Camping.jpg","incongruent","m",701.937543,"j","j","right","(148, 362)",37,1,701.25068056763,-21.9556954023701," 1383.04",289,3,1,1
"49",131,"right","SHINEd_Clarinet.jpg","congruent","m",632.817274,"j","j","right","(862, 362)",6,1,632.084359778668,-91.1220161913322," 1182.94",232,3,0,0
"49",132,"left","SHINEd_platypus.jpg","congruent","n",796.405614,"f","f","left","(148, 362)",293,1,795.626647989706,72.4202720197057," 1166.79",75,4,1,1
"49",133,"right","SHINEd_peacockfeather.jpg","incongruent","n",NA,"miss","f","left","(862, 362)",382,0,NA,NA,"  669.43",427,3,0,0
"49",134,"right","SHINEd_PencilSharpener.jpg","congruent","m",829.847179,"j","j","right","(862, 362)",74,1,828.976109411781,105.769733441781," 1666.94",39,4,1,1
"49",135,"right","SHINEd_volcano copy.jpg","incongruent","n",NA,"miss","f","left","(862, 362)",234,0,NA,NA,"  837.64",134,3,1,1
"49",136,"left","SHINEd_Kettle.jpg","incongruent","m",652.674774,"j","j","right","(148, 362)",157,1,651.711600833857,-71.4947751361428," 3590.92",270,3,0,0
"49",137,"right","SHINEd_Clip_Paper.jpg","congruent","m",760.444016,"j","j","right","(862, 362)",66,1,759.434791044895,36.2284150748951,"  735.67",311,3,1,1
"49",138,"left","SHINEd_Turtle.jpg","congruent","n",853.27684,"f","f","left","(148, 362)",305,1,852.221563255933,129.015187285933," 1479.04",93,4,1,1
"49",139,"left","SHINEd_HotWaterBottle.jpg","incongruent","m",577.879913,"j","j","right","(148, 362)",113,1,576.778584466971,-146.427791503029,"  791.25",336,3,1,1
"49",140,"right","SHINEd_Swing_Child.jpg","congruent","m",589.381136,"f","j","right","(862, 362)",166,0,588.233755678009,-134.972620291991," 1208.36",163,4,1,1
"49",141,"right","SHINEd_Pumpkin.jpg","incongruent","n",664.548875,"f","f","left","(862, 362)",294,1,663.355442889046,-59.8509330809535," 2118.51",219,3,1,1
"49",142,"left","SHINEd_cottonplant.jpg","congruent","n",789.653144,"f","f","left","(148, 362)",297,1,788.413660100084,65.2072841300845," 3926.40",315,2,0,0
"49",143,"right","SHINEd_RamAnimal.jpg","incongruent","n",745.389825,"f","f","left","(862, 362)",454,1,744.104289311122,20.8979133411223," 1641.09",15,3,1,1
"49",144,"right","SHINEd_Deodorant.jpg","congruent","m",772.975241,"j","j","right","(862, 362)",118,1,771.64365352216,48.4372775521602," 1238.01",442,3,0,0
"49",145,"left","SHINEd_Megaphone.jpg","incongruent","m",729.556004,"j","j","right","(148, 362)",101,1,728.178364733198,4.97198876319812,"  941.57",380,3,1,1
"49",146,"right","SHINEd_rose.jpg","incongruent","n",724.259272,"f","f","left","(862, 362)",430,1,722.835580944236,-0.370795025764021," 1062.87",213,3,1,1
"49",147,"left","SHINEd_Leaf_Clover.jpg","congruent","n",744.504048,"f","f","left","(148, 362)",449,1,743.034305155274,19.8279291852739," 1845.92",257,2,0,0
"49",148,"left","SHINEd_Carabiner_Orange.jpg","incongruent","m",845.317865,"j","j","right","(148, 362)",29,1,843.802070366312,120.595694396312," 6947.37",3,4,1,1
"49",149,"left","SHINEd_vanillabean copy.jpg","congruent","n",921.222008,"f","f","left","(148, 362)",329,1,919.66016157735,196.45378560735," 1967.01",73,4,1,1
"49",150,"right","SHINEd_Calculator.jpg","congruent","m",789.443918,"j","j","right","(862, 362)",94,1,787.836019788387,64.6296438183875,"  945.64",401,3,0,0
"49",151,"left","SHINEd_catcus.jpg","congruent","n",892.158637,"f","f","left","(148, 362)",313,1,890.504686999425,167.298311029425,"  878.47",364,3,1,1
"49",152,"left","SHINEd_Vest.jpg","incongruent","m",935.425284,"j","j","right","(148, 362)",5,1,933.725282210463,210.518906240463," 2337.93",12,4,1,1
"49",153,"left","SHINEd_Bleachers.jpg","incongruent","m",644.272819,"j","j","right","(148, 362)",133,1,642.526765421501,-80.6796105484989," 1150.96",354,3,1,1
"49",154,"right","SHINEd_Weights_Dumbells.jpg","congruent","m",638.07224,"j","j","right","(862, 362)",22,1,636.280134632539,-86.9262413374611,"  916.44",439,3,1,1
"49",155,"right","SHINEd_CasketOpen.jpg","congruent","m",827.507013,"j","j","right","(862, 362)",218,1,825.668855843577,102.462479873577,"  887.01",209,3,1,1
"49",156,"left","SHINEd_Carrot.jpg","congruent","n",590.30218,"f","f","left","(148, 362)",281,1,588.417971054615,-134.788404915385,"  978.10",334,3,1,1
"49",157,"left","SHINEd_Wheel_Steering.jpg","incongruent","m",571.001845,"j","j","right","(148, 362)",185,1,569.071584265653,-154.134791704347,"  902.44",149,3,1,1
"49",158,"right","SHINEd_Cantaloupe.jpg","incongruent","n",NA,"miss","f","left","(862, 362)",338,0,NA,NA," 1061.14",268,3,0,0
"49",159,"right","SHINEd_Bicycle_Kids.jpg","congruent","m",539.714302,"j","j","right","(862, 362)",26,1,537.691937687728,-185.514438282272,"  943.96",291,3,0,0
"49",160,"left","SHINEd_WatermelonSlice.jpg","congruent","n",887.24577,"f","f","left","(148, 362)",325,1,885.177353898766,161.970977928766," 2413.71",292,3,0,0
"49",161,"left","SHINEd_Bottle_Blue.jpg","incongruent","m",628.453147,"j","j","right","(148, 362)",217,1,626.338679109804,-96.8676968601959," 2517.02",267,3,0,0
"49",162,"right","SHINEd_Door_Green.jpg","congruent","m",929.13417,"j","j","right","(862, 362)",106,1,926.973650320842,203.767274350842," 1151.31",348,3,1,1
"49",163,"left","SHINEd_Skates.jpg","incongruent","m",789.727144,"j","j","right","(148, 362)",125,1,787.52057253188,64.3141965618798,"  712.88",307,3,1,1
"49",164,"right","SHINEd_ElectricOutlet.jpg","congruent","m",946.489543,"j","j","right","(862, 362)",102,1,944.236919742918,221.030543772918,"  812.48",228,3,1,1
"49",165,"left","SHINEd_FlipFlop_PairBlue.jpg","incongruent","m",888.264228,"j","j","right","(148, 362)",153,1,885.965552953956,162.759176983956," 1407.18",290,3,1,1
"49",166,"left","SHINEd_Chair_High.jpg","incongruent","m",749.354638,"j","j","right","(148, 362)",209,1,747.009911164993,23.8035351949936," 5110.57",277,3,0,0
"49",167,"left","SHINEd_Oyster.jpg","congruent","n",911.526643,"f","f","left","(148, 362)",433,1,909.135864376031,185.929488406031," 2552.89",96,3,1,1
"49",168,"right","SHINEd_purple_yam.jpg","incongruent","n",642.271026,"f","f","left","(862, 362)",442,1,639.834195587069,-83.3721803829307," 1190.59",340,3,0,0
"49",169,"left","SHINEd_Leg.jpg","congruent","n",630.530103,"f","f","left","(148, 362)",405,1,628.047220798107,-95.1591551718928," 1542.48",180,4,1,1
"49",170,"right","SHINEd_LawnMower.jpg","congruent","m",NA,"miss","j","right","(862, 362)",46,0,NA,NA," 3060.34",104,3,1,1
"49",171,"right","SHINEd_Boot_Rain.jpg","congruent","m",451.881143,"j","j","right","(862, 362)",150,1,449.306157220183,-273.900218749817,"  727.07",269,3,0,0
"49",172,"right","SHINEd_Cranberry.jpg","incongruent","n",680.383926,"f","f","left","(862, 362)",398,1,677.762888431221,-45.4434875387792,"  991.31",282,3,0,0
"49",173,"right","SHINEd_USBKey.jpg","congruent","m",741.346285,"j","j","right","(862, 362)",90,1,738.679195642259,15.4728196722586," 3663.87",60,4,1,1
"49",174,"right","SHINEd_Fruit_Orange.jpg","incongruent","n",NA,"miss","f","left","(862, 362)",302,0,NA,NA," 1302.00",254,3,1,1
"49",175,"right","SHINEd_MobilityScooter.jpg","congruent","m",686.555941,"j","j","right","(862, 362)",182,1,683.796748064334,-39.4096279056656,"  942.68",286,3,0,0
"49",176,"left","SHINEd_Gorilla.jpg","congruent","n",659.450102,"f","f","left","(148, 362)",285,1,656.644857275372,-66.5615186946277,"  957.19",451,3,0,0
"49",177,"left","SHINEd_Hat_Baseball.jpg","incongruent","m",831.378043,"j","j","right","(148, 362)",189,1,828.52674648641,105.32037051641," 2199.35",212,3,0,0
"49",178,"right","SHINEd_Drill.jpg","congruent","m",NA,"miss","j","right","(862, 362)",30,0,NA,NA,"  999.32",243,3,1,1
"49",179,"left","SHINEd_Binder.jpg","incongruent","m",720.401305,"j","j","right","(148, 362)",65,1,717.457904908486,-5.74847106151408,"  911.96",230,3,1,1
"49",180,"right","SHINEd_Teapot.jpg","congruent","m",NA,"miss","j","right","(862, 362)",214,0,NA,NA," 1558.45",231,3,0,0
"49",181,"right","SHINEd_HairClip.jpg","congruent","m",546.068589,"f","j","right","(862, 362)",194,0,543.033085330562,-180.173290639438," 1127.82",169,4,1,1
"49",182,"left","SHINEd_Boat_Colourful.jpg","incongruent","m",855.578882,"j","j","right","(148, 362)",173,1,852.4973265416,129.2909505716," 1061.62",350,3,1,1
"49",183,"left","SHINEd_white_strawberries.jpg","congruent","n",915.464942,"f","f","left","(148, 362)",417,1,912.337334752637,189.130958782637," 1246.23",25,4,1,1
"49",184,"left","SHINEd_BowlingPin.jpg","incongruent","m",583.308904,"j","j","right","(148, 362)",25,1,580.135244963675,-143.071131006325," 1310.18",306,3,1,1
"49",185,"right","SHINEd_Mask_HockeyGoalie.jpg","congruent","m",604.295365,"f","j","right","(862, 362)",126,0,601.075654174713,-122.130721795287,"  709.84",326,3,0,0
"49",186,"left","SHINEd_Clock_Radio.jpg","incongruent","m",689.026334,"j","j","right","(148, 362)",93,1,685.760571385751,-37.4458045842489,"  687.61",240,3,0,0
"49",187,"left","SHINEd_orchid.jpg","congruent","n",725.689459,"f","f","left","(148, 362)",261,1,722.377644596789,-0.828731373210987," 2998.33",235,3,0,0
"49",188,"left","SHINEd_BusStop.jpg","incongruent","m",763.39268,"j","j","right","(148, 362)",145,1,760.034813807827,36.8284378378269,"  766.73",273,3,1,1
"49",189,"left","SHINEd_Switch_LightWhite.jpg","incongruent","m",503.854375,"j","j","right","(148, 362)",57,1,500.450457018865,-222.755918951135," 1344.85",130,3,0,0
"49",190,"left","SHINEd_pickle.jpg","congruent","n",612.7926,"f","f","left","(148, 362)",373,1,609.342630229903,-113.863745740097," 3709.64",313,3,1,1
"49",191,"left","SHINEd_brusselsprouts.jpg","congruent","n",NA,"miss","f","left","(148, 362)",265,0,NA,NA," 1694.35",205,3,0,0
"49",192,"left","SHINEd_Mattress.jpg","incongruent","m",820.011137,"j","j","right","(148, 362)",49,1,816.469063651978,93.2626876819783," 1312.78",114,4,1,1
"49",193,"right","SHINEd_manatee.jpg","incongruent","n",631.556862,"f","f","left","(862, 362)",342,1,627.968736863016,-95.2376391069837,"  709.93",146,3,1,1
"49",194,"left","SHINEd_mizuna.jpg","congruent","n",NA,"miss","f","left","(148, 362)",429,0,NA,NA,"  775.48",351,3,0,0
"49",195,"right","SHINEd_SkullDeer.jpg","incongruent","n",881.020254,"f","f","left","(862, 362)",278,1,877.340025285092,154.133649315092," 1008.72",297,3,0,0
"49",196,"right","SHINEd_LightHouse.jpg","congruent","m",884.788237,"j","j","right","(862, 362)",146,1,881.06195649613,157.85558052613," 1861.91",252,3,1,1
"49",197,"left","SHINEd_Mango.jpg","congruent","n",594.148885,"f","f","left","(148, 362)",277,1,590.376552707168,-132.829823262832," 2254.01",182,4,1,1
"49",198,"left","SHINEd_Lychee.jpg","congruent","n",542.965982,"f","f","left","(148, 362)",321,1,539.147597918206,-184.058778051794," 1174.32",261,3,0,0
"49",199,"right","SHINEd_Bird_Pelican.jpg","incongruent","n",568.882056,"j","f","left","(862, 362)",402,0,565.017620129243,-158.188755840756," 2855.21",142,3,1,1
"49",200,"right","SHINEd_Bench_Black.jpg","congruent","m",574.592522,"j","j","right","(862, 362)",206,1,570.682034340281,-152.524341629719," 1245.00",357,3,0,0
"49",201,"right","SHINEd_Cane_Metal.jpg","congruent","m",NA,"miss","j","right","(862, 362)",190,0,NA,NA,"  844.98",318,3,0,0
"49",202,"left","SHINEd_Bottle_Beer.jpg","incongruent","m",959.492267,"f","j","right","(148, 362)",213,0,955.489675762357,232.283299792357," 2477.21",388,3,0,0
"49",203,"left","SHINEd_frog.jpg","congruent","n",812.035008,"j","f","left","(148, 362)",345,0,807.986364973395,84.7799890033949,"  750.85",453,3,0,0
"49",204,"left","SHINEd_Toad.jpg","congruent","n",630.570535,"f","f","left","(148, 362)",441,1,626.475840184433,-96.7305357855672," 1102.22",5,4,1,1
"49",205,"left","SHINEd_Bells_Christmas.jpg","incongruent","m",626.880013,"j","j","right","(148, 362)",225,1,622.739266395471,-100.467109574529," 6615.89",112,4,1,1
"49",206,"right","SHINEd_Dragonfly.jpg","incongruent","n",888.418349,"f","f","left","(862, 362)",346,1,884.231550606509,161.025174636509,"  935.82",145,3,1,1
"49",207,"left","SHINEd_Pineapple.jpg","congruent","n",613.662867,"f","f","left","(148, 362)",353,1,609.430016817547,-113.776359152453,"  761.27",27,4,1,1
"49",208,"left","SHINEd_DeepFryer.jpg","incongruent","m",872.776494,"j","j","right","(148, 362)",161,1,868.497592028584,145.291216058584,"  760.65",174,1,0,0
"49",209,"left","SHINEd_Mitt_Oven.jpg","incongruent","m",683.710517,"f","j","right","(148, 362)",137,0,679.385563239622,-43.8208127303778," 1014.76",412,3,1,1
"49",210,"right","SHINEd_discoball.jpg","congruent","m",NA,"miss","j","right","(862, 362)",226,0,NA,NA," 2206.54",419,3,1,1
"49",211,"left","SHINEd_Bird_Eagle.jpg","congruent","n",716.12475,"f","f","left","(148, 362)",257,1,711.707692661698,-11.498683308302," 1112.83",133,3,1,1
"49",212,"right","SHINEd_Flamingo_Real.jpg","incongruent","n",671.092993,"f","f","left","(862, 362)",406,1,666.629883872736,-56.5764920972641," 3175.84",198,3,0,0
"49",213,"right","SHINEd_Dog_CockerSpaniel.jpg","incongruent","n",612.943478,"f","f","left","(862, 362)",306,1,608.434317083774,-114.772058886226," 1055.18",97,3,1,1
"49",214,"left","SHINEd_catfish.jpg","congruent","n",735.905338,"f","f","left","(148, 362)",361,1,731.350125294812,8.14374932481169," 1143.47",31,4,1,1
"49",215,"left","SHINEd_Crown.jpg","incongruent","m",643.245229,"j","j","right","(148, 362)",193,1,638.643964505849,-84.5624114641505," 1390.02",64,4,1,1
"49",216,"left","SHINEd_DogHouse.jpg","incongruent","m",790.373252,"j","j","right","(148, 362)",165,1,785.725935716887,62.5195597468874,"  935.57",215,3,1,1
"49",217,"right","SHINEd_DustPan.jpg","congruent","m",756.606152,"j","j","right","(862, 362)",54,1,751.912783927925,28.7064079579252," 1034.63",335,3,0,0
"49",218,"left","SHINEd_Dice.jpg","incongruent","m",775.519431,"j","j","right","(148, 362)",89,1,770.780011138963,47.5736351689632,"  845.94",6,4,1,1
"49",219,"right","SHINEd_brownbeans.jpg","incongruent","n",NA,"miss","f","left","(862, 362)",366,0,NA,NA," 1456.77",77,4,1,1
"49",220,"left","SHINEd_starfruit.jpg","congruent","n",697.046224,"f","f","left","(148, 362)",317,1,692.214700561039,-30.991675408961,"  894.15",227,3,1,1
"49",221,"left","SHINEd_Quartz.jpg","congruent","n",965.278508,"f","f","left","(148, 362)",401,1,960.400932772077,237.194556802077,"  935.76",255,3,0,0
"49",222,"right","SHINEd_TissueBox.jpg","congruent","m",975.56009,"j","j","right","(862, 362)",50,1,970.636462983115,247.430087013115," 1247.75",55,4,1,1
"49",223,"left","SHINEd_Tree_Fir.jpg","congruent","n",796.430402,"f","f","left","(148, 362)",229,1,791.460723194152,68.2543472241525," 1196.97",312,3,0,0
"49",224,"right","SHINEd_Seashell_BayScallop.jpg","incongruent","n",449.96445,"f","f","left","(862, 362)",270,1,444.94871940519,-278.25765656481,"  862.82",201,3,1,1
"49",225,"right","SHINEd_Butterfly.jpg","incongruent","n",790.358942,"f","f","left","(862, 362)",318,1,785.297159616228,62.0907836462283," 2648.40",9,3,1,1
"49",226,"right","SHINEd_Glove_Rubber.jpg","congruent","m",691.296828,"j","j","right","(862, 362)",138,1,686.188993827266,-37.0173821427338," 1406.57",272,3,1,1
"49",227,"left","SHINEd_ChainRusty.jpg","incongruent","m",693.487443,"j","j","right","(148, 362)",21,1,688.333557038304,-34.8728189316959,"  959.78",373,3,1,1
"49",228,"right","SHINEd_grasshopper.jpg","incongruent","n",640.864696,"j","f","left","(862, 362)",286,0,635.664758249342,-87.5416177206581," 1245.30",416,3,0,0
