"participant","trial_index","screenposition","stimulus","trialtype","classifyenc","rt","response","responsecorrect","responsecorrect_side","screenlocation","stimnum","acc","rtResidual","rtResidualC","rt_rec","trialno_rec","ratingConfidence","acc_rec","memoryHits.hc"
"4",1,"left","SHINEd_hyena.jpg","incongruent","n",NA,"miss","j","right","(148, 362)",422,0,NA,NA," 1735.73",202,3,0,0
"4",2,"left","SHINEd_Clip_Paper.jpg","congruent","m",515.286456,"f","f","left","(148, 362)",66,1,483.82520714917,-89.8585248778567,"  989.26",433,3,0,0
"4",3,"right","SHINEd_dinosaur fossil.jpg","congruent","n",543.964649,"j","j","right","(862, 362)",377,1,512.779234328106,-60.904497698921," 1001.10",189,4,1,1
"4",4,"left","SHINEd_Goat.jpg","incongruent","n",756.498807,"j","j","right","(148, 362)",322,1,725.589226507044,151.905494480017," 1393.56",389,2,1,NA
"4",5,"left","SHINEd_Box_Notepaper.jpg","congruent","m",761.533296,"f","f","left","(148, 362)",70,1,730.899549685982,157.215817658955,"  798.26",39,4,1,1
"4",6,"right","SHINEd_Kettle.jpg","incongruent","m",615.786976,"f","f","left","(862, 362)",157,1,585.42906386492,11.7453318378925," 1005.25",197,4,1,1
"4",7,"right","SHINEd_artichoke.jpg","congruent","n",853.443217,"j","j","right","(862, 362)",453,1,823.361139043857,249.67740701683," 2245.59",331,1,1,NA
"4",8,"right","SHINEd_MusicSheet.jpg","incongruent","m",615.066951,"f","f","left","(862, 362)",13,1,585.260707222795,11.5769751957682," 1190.84",146,4,1,1
"4",9,"left","SHINEd_Bugle.jpg","congruent","m",554.46158,"f","f","left","(148, 362)",14,1,524.931170401733,-48.7525616252939," 1190.39",222,4,1,1
"4",10,"right","SHINEd_Escalator.jpg","incongruent","m",585.899955,"f","f","left","(862, 362)",177,1,556.645379580671,-17.0383524463562,"  789.99",83,4,1,1
"4",11,"right","SHINEd_Lychee.jpg","congruent","n",676.707162,"j","j","right","(862, 362)",321,1,647.728420759609,74.0446887325817," 1325.20",326,2,0,0
"4",12,"left","SHINEd_honeydew.jpg","incongruent","n",649.372032,"j","j","right","(148, 362)",330,1,620.669124938547,46.9853929115195," 4009.64",104,2,1,NA
"4",13,"right","SHINEd_dragonfruit.jpg","congruent","n",558.902889,"j","j","right","(862, 362)",437,1,530.475816117484,-43.2079159095427," 2806.40",164,3,0,0
"4",14,"left","SHINEd_Radish.jpg","incongruent","n",619.68788,"j","j","right","(148, 362)",242,1,591.536641296422,17.8529092693951," 1452.47",177,3,1,1
"4",15,"left","SHINEd_PencilSharpener.jpg","congruent","m",457.528075,"f","f","left","(148, 362)",74,1,429.65267047536,-144.031061551667," 1268.95",367,3,1,1
"4",16,"left","SHINEd_Fruit_Orange.jpg","incongruent","n",526.19362,"j","j","right","(148, 362)",302,1,498.594049654298,-75.0896823727292," 1598.28",80,3,1,1
"4",17,"right","SHINEd_soil.jpg","congruent","n",586.328181,"j","j","right","(862, 362)",289,1,559.004444833236,-14.6792871937914," 1014.07",91,4,1,1
"4",18,"left","SHINEd_Bird_Pelican.jpg","incongruent","n",567.745181,"j","j","right","(148, 362)",402,1,540.697279012174,-32.9864530148536," 1605.43",448,3,0,0
"4",19,"right","SHINEd_Bottle_Beer.jpg","incongruent","m",452.271327,"f","f","left","(862, 362)",213,1,425.499259191111,-148.184472835916,"  973.48",215,4,1,1
"4",20,"right","SHINEd_Cloud.jpg","congruent","n",NA,"miss","j","right","(862, 362)",385,0,NA,NA,"  959.39",65,4,1,1
"4",21,"left","SHINEd_antlers.jpg","incongruent","n",731.8024,"j","j","right","(148, 362)",418,1,705.582000548987,131.89826852196," 1126.16",279,4,1,1
"4",22,"left","SHINEd_Starfish.jpg","incongruent","n",657.811008,"j","j","right","(148, 362)",378,1,631.866442727925,58.1827107008977," 1065.84",142,4,1,1
"4",23,"left","SHINEd_Ball_Bowling.jpg","congruent","m",661.459295,"j","f","left","(148, 362)",134,0,635.790563906863,62.1068318798356," 1514.12",94,4,1,1
"4",24,"right","SHINEd_Knife_Camping.jpg","incongruent","m",752.803585,"f","f","left","(862, 362)",37,1,727.410688085801,153.726956058773," 1229.59",266,4,1,1
"4",25,"left","SHINEd_CasketOpen.jpg","congruent","m",558.070541,"f","f","left","(148, 362)",218,1,532.953478264738,-40.7302537622887," 1149.88",455,4,1,1
"4",26,"right","SHINEd_Jetski.jpg","incongruent","m",666.998822,"f","f","left","(862, 362)",181,1,642.157593443676,68.473861416649," 2965.25",292,2,1,NA
"4",27,"right","SHINEd_Tree_Fir.jpg","congruent","n",543.478136,"j","j","right","(862, 362)",229,1,518.912741622614,-54.7709904044132,"  926.31",121,4,1,1
"4",28,"right","SHINEd_Elephant.jpg","congruent","n",492.182081,"j","j","right","(862, 362)",349,1,467.892520801552,-105.791211225475," 1012.99",155,4,1,1
"4",29,"right","SHINEd_Gum_Pack.jpg","incongruent","m",606.84599,"f","f","left","(862, 362)",77,1,582.83226398049,9.14853195346253," 1013.67",409,4,1,1
"4",30,"right","SHINEd_Leek.jpg","congruent","n",572.324913,"j","j","right","(862, 362)",357,1,548.587021159427,-25.0967108675996," 1376.50",297,2,1,NA
"4",31,"right","SHINEd_BasketballHoop.jpg","incongruent","m",NA,"miss","f","left","(862, 362)",129,0,NA,NA," 2660.41",221,2,1,NA
"4",32,"left","SHINEd_volcano copy.jpg","incongruent","n",898.264546,"f","j","right","(148, 362)",234,0,875.078322517303,301.394590490276," 1454.39",25,4,1,1
"4",33,"right","SHINEd_Pineapple.jpg","congruent","n",831.912197,"j","j","right","(862, 362)",353,1,809.001807696241,235.318075669214," 2286.91",244,3,0,0
"4",34,"right","SHINEd_Gloves_WhiteKnit.jpg","incongruent","m",620.50623,"f","f","left","(862, 362)",197,1,597.871674875179,24.1879428481516,"  855.96",138,3,0,0
"4",35,"right","SHINEd_orchid.jpg","congruent","n",553.053266,"j","j","right","(862, 362)",261,1,530.694545054117,-42.9891869729105," 2189.71",358,2,1,NA
"4",36,"left","SHINEd_SkullDeer.jpg","incongruent","n",589.307037,"j","j","right","(148, 362)",278,1,567.224150233054,-6.4595817939727," 4200.00",3,4,1,1
"4",37,"right","SHINEd_pickle.jpg","congruent","n",706.077068,"j","j","right","(862, 362)",373,1,684.270015411992,110.586283384965," 1598.98",369,2,1,NA
"4",38,"right","SHINEd_Bowl_Wooden.jpg","incongruent","m",702.840482,"f","f","left","(862, 362)",141,1,681.30926359093,107.625531563903,"  646.99",82,4,1,1
"4",39,"right","SHINEd_Collards.jpg","congruent","n",612.21367,"j","j","right","(862, 362)",445,1,590.958285769868,17.2745537428407," 2958.80",76,2,0,0
"4",40,"right","SHINEd_Carabiner_Orange.jpg","incongruent","m",NA,"miss","f","left","(862, 362)",29,0,NA,NA,"  608.82",89,4,1,1
"4",41,"left","SHINEd_accordion.jpg","congruent","m",573.474987,"f","f","left","(148, 362)",10,1,552.771271127743,-20.9124608992836," 1712.23",293,3,0,0
"4",42,"right","SHINEd_Cabinet_Display.jpg","incongruent","m",690.141104,"f","f","left","(862, 362)",205,1,669.713222306681,96.0294902796543,"10976.36",272,3,1,1
"4",43,"right","SHINEd_mizuna.jpg","congruent","n",534.049645,"j","j","right","(862, 362)",429,1,513.897597485619,-59.7861345414079," 2702.08",345,1,0,0
"4",44,"left","SHINEd_RamAnimal.jpg","incongruent","n",810.612399,"j","j","right","(148, 362)",454,1,790.736185664557,217.05245363753," 1485.15",96,3,1,1
"4",45,"left","SHINEd_BearPolar.jpg","incongruent","n",596.76612,"j","j","right","(148, 362)",386,1,577.165740843495,3.48200881646768," 2423.95",285,2,0,0
"4",46,"right","SHINEd_Oyster.jpg","congruent","n",777.259171,"j","j","right","(862, 362)",433,1,757.934626022433,184.250893995406," 1118.41",269,4,1,1
"4",47,"right","SHINEd_fountain.jpg","incongruent","m",629.113764,"f","f","left","(862, 362)",169,1,610.06505320137,36.3813211743433,"  823.50",174,4,0,0
"4",48,"right","SHINEd_Bells_Christmas.jpg","incongruent","m",711.185527,"f","f","left","(862, 362)",225,1,692.412650380308,118.728918353281,"  791.08",73,4,1,1
"4",49,"left","SHINEd_Swing_Child.jpg","congruent","m",483.309061,"f","f","left","(148, 362)",166,1,464.812018559246,-108.871713467781,"  974.75",28,4,1,1
"4",50,"right","SHINEd_BicycleChain.jpg","incongruent","m",432.408246,"f","f","left","(862, 362)",17,1,414.187037738184,-159.496694288843," 1213.00",203,4,1,1
"4",51,"right","SHINEd_koala.jpg","congruent","n",325.281052,"j","j","right","(862, 362)",365,1,307.335677917122,-266.348054109905," 1606.25",359,2,1,NA
"4",52,"left","SHINEd_Kite_Rainbow.jpg","congruent","m",562.424069,"f","f","left","(148, 362)",78,1,544.75452909606,-28.9292029309675,"  808.34",69,4,1,1
"4",53,"left","SHINEd_Cherry.jpg","incongruent","n",557.865644,"j","j","right","(148, 362)",258,1,540.471938274997,-33.2117937520297,"  941.66",235,4,1,1
"4",54,"right","SHINEd_Corn.jpg","congruent","n",546.30691,"j","j","right","(862, 362)",337,1,529.189038453935,-44.4946935730919," 1014.04",205,4,1,1
"4",55,"left","SHINEd_pomegrant.jpg","incongruent","n",557.754006,"j","j","right","(148, 362)",354,1,540.911968632873,-32.7717633941541," 2735.46",303,2,0,0
"4",56,"right","SHINEd_Chair_High.jpg","incongruent","m",740.432927,"f","f","left","(862, 362)",209,1,723.866723811811,150.182991784784," 1215.02",344,3,0,0
"4",57,"left","SHINEd_Lipstick.jpg","congruent","m",NA,"miss","f","left","(148, 362)",198,0,NA,NA," 1173.82",100,4,1,1
"4",58,"right","SHINEd_Crown.jpg","incongruent","m",618.706151,"f","f","left","(862, 362)",193,1,602.691616169686,29.0078841426594,"  757.07",143,3,0,0
"4",59,"right","SHINEd_vanillabean copy.jpg","congruent","n",504.555492,"j","j","right","(862, 362)",329,1,488.816791348624,-84.8669406784028,"  966.55",206,4,1,1
"4",60,"left","SHINEd_Dog_CockerSpaniel.jpg","incongruent","n",517.257398,"j","j","right","(148, 362)",306,1,501.794531527562,-71.889200499465,"  965.93",34,4,1,1
"4",61,"left","SHINEd_rabbitt.jpg","incongruent","n",513.137169,"j","j","right","(148, 362)",350,1,497.9501367065,-75.7335953205272," 1773.64",51,2,1,NA
"4",62,"left","SHINEd_PictureFrame.jpg","congruent","m",412.781661,"f","f","left","(148, 362)",222,1,397.870462885438,-175.813269141589," 1006.62",335,3,1,1
"4",63,"right","SHINEd_RecordPlayer.jpg","incongruent","m",402.218303,"f","f","left","(862, 362)",149,1,387.582939064376,-186.100792962651," 1517.78",449,2,1,NA
"4",64,"right","SHINEd_Dog_ChowChow.jpg","congruent","n",406.518562,"j","j","right","(862, 362)",369,1,392.159032243313,-181.524699783714," 1279.65",117,4,1,1
"4",65,"right","SHINEd_Vase_Decorative copy.jpg","incongruent","m",425.047683,"f","f","left","(862, 362)",221,1,410.963987422251,-162.719744604776,"  588.41",442,3,0,0
"4",66,"right","SHINEd_platypus.jpg","congruent","n",476.957716,"j","j","right","(862, 362)",293,1,463.149854601189,-110.533877425838,"  694.90",342,3,0,0
"4",67,"left","SHINEd_Lips_Real.jpg","incongruent","n",665.075001,"j","j","right","(148, 362)",390,1,651.542973780127,77.8592417530999,"  805.74",404,4,1,1
"4",68,"right","SHINEd_Wheel_Steering.jpg","incongruent","m",549.928434,"f","f","left","(862, 362)",185,1,536.672240959065,-37.0114910679623," 2726.86",126,3,0,0
"4",69,"left","SHINEd_Jacket_Suit.jpg","congruent","m",947.129515,"f","f","left","(148, 362)",2,1,934.149156138003,360.465424110975," 4127.84",136,3,1,1
"4",70,"left","SHINEd_greenapple.jpg","incongruent","n",446.247191,"j","j","right","(148, 362)",410,1,433.54266631694,-140.141065710087," 2028.96",270,2,0,0
"4",71,"right","SHINEd_catcus.jpg","congruent","n",507.075549,"j","j","right","(862, 362)",313,1,494.646858495878,-79.0368735311489," 1190.62",227,4,1,1
"4",72,"left","SHINEd_raccoon.jpg","incongruent","n",455.268001,"j","j","right","(148, 362)",262,1,443.115144674816,-130.568587352211,"  767.11",118,4,1,1
"4",73,"left","SHINEd_Bathtub.jpg","congruent","m",522.342512,"f","f","left","(148, 362)",58,1,510.465489853754,-63.2182421732732,"  903.12",223,4,1,1
"4",74,"right","SHINEd_Mattress.jpg","incongruent","m",573.364521,"f","f","left","(862, 362)",49,1,561.763333032692,-11.9203989943355," 1005.67",374,3,1,1
"4",75,"left","SHINEd_RollerBlade.jpg","congruent","m",521.247755,"f","f","left","(148, 362)",178,1,509.922401211629,-63.7613308153976,"  735.09",343,3,0,0
"4",76,"left","SHINEd_Door_Green.jpg","congruent","m",444.758762,"f","f","left","(148, 362)",106,1,433.709242390567,-139.97448963646," 1158.67",159,4,1,1
"4",77,"right","SHINEd_BowlingPin.jpg","incongruent","m",506.174988,"f","f","left","(862, 362)",25,1,495.401302569505,-78.282429457522,"  848.71",281,4,1,1
"4",78,"left","SHINEd_Flashlight.jpg","congruent","m",445.688696,"f","f","left","(148, 362)",98,1,435.190844748443,-138.492887278584,"  822.40",72,4,1,1
"4",79,"left","SHINEd_Cantaloupe.jpg","incongruent","n",650.151991,"j","j","right","(148, 362)",338,1,639.929973927381,66.2462419003537," 1151.34",336,3,1,1
"4",80,"left","SHINEd_Fryingpan.jpg","congruent","m",469.169053,"f","f","left","(148, 362)",158,1,459.222870106319,-114.460861920708," 1205.29",254,3,1,1
"4",81,"left","SHINEd_durian.jpg","incongruent","n",464.885288,"j","j","right","(148, 362)",374,1,455.214939285256,-118.468792741771," 1980.01",391,2,1,NA
"4",82,"left","SHINEd_MobilityScooter.jpg","congruent","m",557.998069,"f","f","left","(148, 362)",182,1,548.603554464194,-25.0801775628328,"  702.22",371,3,0,0
"4",83,"right","SHINEd_FileDivider.jpg","incongruent","m",586.471777,"f","f","left","(862, 362)",69,1,577.353096643132,3.66936461610497," 1078.17",128,3,1,1
"4",84,"left","SHINEd_Nail.jpg","congruent","m",390.316969,"f","f","left","(148, 362)",38,1,381.47412282207,-192.209609204957," 1517.84",408,3,1,1
"4",85,"left","SHINEd_spinach.jpg","incongruent","n",547.896665,"j","j","right","(148, 362)",266,1,539.329653001008,-34.3540790260194," 1624.82",311,3,0,0
"4",86,"right","SHINEd_Branch.jpg","congruent","n",311.572696,"j","j","right","(862, 362)",333,1,303.281518179946,-270.402213847082," 1541.66",75,3,1,1
"4",87,"left","SHINEd_Weights_Dumbells.jpg","congruent","m",466.823799,"f","f","left","(148, 362)",22,1,458.808455358883,-114.875276668144," 9037.77",257,3,0,0
"4",88,"right","SHINEd_Bleachers.jpg","incongruent","m",575.640882,"f","f","left","(862, 362)",133,1,567.901372537821,-5.78235948920585," 1255.62",61,4,1,1
"4",89,"right","SHINEd_starfruit.jpg","congruent","n",436.045479,"j","j","right","(862, 362)",317,1,428.581803716759,-145.101928310268," 1847.16",12,4,1,1
"4",90,"left","SHINEd_Flamingo_Real.jpg","incongruent","n",544.171979,"j","j","right","(148, 362)",406,1,536.984137895697,-36.6995941313303,"  680.16",315,3,0,0
"4",91,"right","SHINEd_Clock_Radio.jpg","incongruent","m",556.452821,"f","f","left","(862, 362)",93,1,549.540814074635,-24.1429179523924,"  982.18",375,4,1,1
"4",92,"left","SHINEd_Slippers.jpg","congruent","m",561.888515,"f","f","left","(148, 362)",154,1,555.252342253572,-18.4313897734546,"  566.74",301,3,0,0
"4",93,"left","SHINEd_Currants.jpg","incongruent","n",588.234395,"j","j","right","(148, 362)",254,1,581.87405643251,8.19032440548318," 2360.60",276,2,0,0
"4",94,"right","SHINEd_brusselsprouts.jpg","congruent","n",583.635594,"j","j","right","(862, 362)",265,1,577.551089611448,3.86735758442103," 1798.87",99,3,0,0
"4",95,"left","SHINEd_Dog_Bulldog.jpg","incongruent","n",548.239258,"j","j","right","(148, 362)",326,1,542.430587790386,-31.2531442366412,"  949.71",137,3,1,1
"4",96,"right","SHINEd_Magnifying_Glass.jpg","incongruent","m",618.867794,"f","f","left","(862, 362)",105,1,613.334957969324,39.6512259422967,"  631.28",232,3,0,0
"4",97,"left","SHINEd_Drill.jpg","congruent","m",653.901626,"f","f","left","(148, 362)",30,1,648.644624148262,74.9608921212345," 1413.52",267,2,1,NA
"4",98,"left","SHINEd_wheat_stock.jpg","incongruent","n",568.122204,"j","j","right","(148, 362)",358,1,563.141036327199,-10.5426956998276," 2284.16",332,2,1,NA
"4",99,"right","SHINEd_Turtle.jpg","congruent","n",548.928773,"j","j","right","(862, 362)",305,1,544.223439506137,-29.4602925208898," 1406.92",22,4,1,1
"4",100,"right","SHINEd_HairDryer.jpg","incongruent","m",439.259552,"f","f","left","(862, 362)",45,1,434.830052685075,-138.853679341952," 1420.17",30,3,0,0
"4",101,"left","SHINEd_Pumpkin.jpg","incongruent","n",498.648772,"j","j","right","(148, 362)",294,1,494.495106864013,-79.1886251630142," 1085.12",255,4,1,1
"4",102,"right","SHINEd_okapi.jpg","congruent","n",477.744212,"j","j","right","(862, 362)",425,1,473.866381042951,-99.8173509840764," 4539.08",1,4,1,1
"4",103,"left","SHINEd_Grape.jpg","incongruent","n",575.99427,"j","j","right","(148, 362)",274,1,572.392273221889,-1.2914588051385,"  934.25",420,2,1,NA
"4",104,"left","SHINEd_Car_Vintage.jpg","congruent","m",684.906658,"f","f","left","(148, 362)",186,1,681.580495400826,107.896763373799," 1102.54",77,3,0,0
"4",105,"right","SHINEd_Leg.jpg","congruent","n",624.734031,"j","j","right","(862, 362)",405,1,621.683702579764,47.9999705527371," 2564.18",417,2,0,0
"4",106,"right","SHINEd_Mitt_Oven.jpg","incongruent","m",734.149306,"f","f","left","(862, 362)",137,1,731.374811758702,157.691079731675," 1118.27",229,2,0,0
"4",107,"right","SHINEd_Paw.jpg","congruent","n",482.579702,"j","j","right","(862, 362)",301,1,480.08104193764,-93.6026900893872," 1053.53",434,4,1,1
"4",108,"right","SHINEd_Saw.jpg","incongruent","m",479.715015,"f","f","left","(862, 362)",33,1,477.492189116578,-96.1915429104494," 1821.23",382,2,0,0
"4",109,"right","SHINEd_Snail.jpg","congruent","n",467.971008,"j","j","right","(862, 362)",241,1,466.024016295515,-107.659715731512," 1845.41",243,3,0,0
"4",110,"right","SHINEd_Makeup_Compact.jpg","incongruent","m",489.904499,"f","f","left","(862, 362)",121,1,488.233341474453,-85.4503905525738," 1190.88",307,3,1,1
"4",111,"right","SHINEd_catfish.jpg","congruent","n",573.221847,"j","j","right","(862, 362)",361,1,571.826523653391,-1.85720837363591," 1052.28",372,3,1,1
"4",112,"right","SHINEd_Gametable_AirHockey.jpg","incongruent","m",497.716896,"f","f","left","(862, 362)",85,1,496.597406832329,-77.0863251946981," 1887.73",124,3,0,0
"4",113,"right","SHINEd_Mango.jpg","congruent","n",484.879201,"j","j","right","(862, 362)",277,1,484.035546011267,-89.6481860157603," 2870.80",251,2,0,0
"4",114,"right","SHINEd_WatermelonSlice.jpg","congruent","n",434.007235,"j","j","right","(862, 362)",325,1,433.439414190205,-140.244317836822,"  766.70",68,4,1,1
"4",115,"left","SHINEd_grasshopper.jpg","incongruent","n",710.735216,"j","j","right","(148, 362)",286,1,710.443229369143,136.759497342115," 1903.38",97,2,0,0
"4",116,"left","SHINEd_Ball_Basketball.jpg","congruent","m",842.201249,"f","f","left","(148, 362)",130,1,842.18509654808,268.501364521053," 2102.16",4,4,1,1
"4",117,"right","SHINEd_ChainRusty.jpg","incongruent","m",743.225078,"f","f","left","(862, 362)",21,1,743.484759727018,169.801027699991,"  720.15",87,4,1,1
"4",118,"left","SHINEd_Scooter.jpg","congruent","m",850.497055,"f","f","left","(148, 362)",174,1,851.032570905956,277.348838878929," 1214.18",196,4,0,0
"4",119,"left","SHINEd_lotusroot.jpg","incongruent","n",807.633667,"j","j","right","(148, 362)",298,1,808.445017084894,234.761285057867," 1215.76",268,2,1,NA
"4",120,"right","SHINEd_Lilypad.jpg","congruent","n",756.419697,"j","j","right","(862, 362)",413,1,757.506881263832,183.823149236805," 1043.59",426,3,1,1
"4",121,"right","SHINEd_Drum_Bongos.jpg","incongruent","m",503.647344,"f","f","left","(862, 362)",9,1,505.010362442769,-68.6733695842577,"  750.77",403,3,0,0
"4",122,"left","SHINEd_ChalkboardEraser.jpg","congruent","m",819.527492,"f","f","left","(148, 362)",62,1,821.166344621707,247.48261259468," 1639.86",284,2,1,NA
"4",123,"left","SHINEd_Butterfly.jpg","incongruent","n",545.281442,"j","j","right","(148, 362)",318,1,547.196128800645,-26.4876032263821,"  940.56",283,3,0,0
"4",124,"right","SHINEd_DentalFloss.jpg","incongruent","m",740.648753,"f","f","left","(862, 362)",117,1,742.839273979583,169.155541952556," 1015.04",432,3,1,1
"4",125,"left","SHINEd_Bench_Black.jpg","congruent","m",439.863703,"f","f","left","(148, 362)",206,1,442.330058158521,-131.353673868506," 1543.21",59,3,0,0
"4",126,"left","SHINEd_mushroom_other.jpg","incongruent","n",691.801428,"j","j","right","(148, 362)",426,1,694.543617337458,120.859885310431," 1141.01",444,3,1,1
"4",127,"left","SHINEd_Briefcase_Leather.jpg","congruent","m",768.730729,"f","f","left","(148, 362)",210,1,771.748752516396,198.065020489369,"  774.02",377,3,0,0
"4",128,"right","SHINEd_Dice.jpg","incongruent","m",867.731961,"f","f","left","(862, 362)",89,1,871.025818695334,297.342086668307,"  702.82",366,3,0,0
"4",129,"left","SHINEd_LightHouse.jpg","congruent","m",719.329447,"f","f","left","(148, 362)",146,1,722.899138874272,149.215406847245,"  895.16",23,4,1,1
"4",130,"left","SHINEd_fox.jpg","incongruent","n",635.698475,"j","j","right","(148, 362)",334,1,639.54400105321,65.8602690261828," 1134.41",304,3,0,0
"4",131,"left","SHINEd_DustPan.jpg","congruent","m",607.774825,"f","f","left","(148, 362)",54,1,611.896185232148,38.2124532051205,"  766.44",386,3,0,0
"4",132,"right","SHINEd_whale.jpg","congruent","n",587.169077,"j","j","right","(862, 362)",421,1,591.566271411085,17.8825393840584," 1185.45",105,2,0,0
"4",133,"right","SHINEd_DoorKnob.jpg","incongruent","m",494.952056,"f","f","left","(862, 362)",53,1,499.625084590023,-74.0586474370038," 1029.98",406,4,0,0
"4",134,"right","SHINEd_Quartz.jpg","congruent","n",522.944489,"j","j","right","(862, 362)",401,1,527.893351768961,-45.790380258066," 1412.97",413,4,1,1
"4",135,"right","SHINEd_Bottle_Blue.jpg","incongruent","m",464.717641,"f","f","left","(862, 362)",217,1,469.942337947899,-103.741394079128," 1061.18",246,3,0,0
"4",136,"left","SHINEd_Seashell_BayScallop.jpg","incongruent","n",573.899878,"j","j","right","(148, 362)",270,1,579.400409126837,5.71667709980961,"  702.45",323,4,1,1
"4",137,"left","SHINEd_Boot_Rain.jpg","congruent","m",473.360199,"f","f","left","(148, 362)",150,1,479.136564305775,-94.5471677212525," 1134.44",62,3,0,0
"4",138,"left","SHINEd_couch.jpg","congruent","m",525.28802,"f","f","left","(148, 362)",202,1,531.340219484712,-42.3435125423147," 3132.83",211,1,0,0
"4",139,"right","SHINEd_Camera_Video.jpg","incongruent","m",688.745097,"f","f","left","(862, 362)",97,1,695.07313066365,121.389398636623," 1141.43",368,3,1,1
"4",140,"right","SHINEd_white_strawberries.jpg","congruent","n",524.461412,"j","j","right","(862, 362)",417,1,531.065279842588,-42.6184521844391,"  782.95",86,4,1,1
"4",141,"left","SHINEd_manatee.jpg","incongruent","n",640.532817,"j","j","right","(148, 362)",342,1,647.412519021526,73.7287869944988," 1030.98",42,4,1,1
"4",142,"right","SHINEd_goldenberry.jpg","congruent","n",557.64064,"j","j","right","(862, 362)",397,1,564.796176200464,-8.88755582656343," 2384.02",15,3,1,1
"4",143,"left","SHINEd_Tomato.jpg","incongruent","n",466.699213,"j","j","right","(148, 362)",450,1,474.130583379402,-99.5531486476256," 1605.31",54,3,1,1
"4",144,"left","SHINEd_Beater_Electric.jpg","congruent","m",591.574385,"f","f","left","(148, 362)",42,1,599.281589558339,25.5978575313123,"  853.11",376,4,1,1
"4",145,"left","SHINEd_purple_yam.jpg","incongruent","n",498.732379,"j","j","right","(148, 362)",442,1,506.715417737277,-66.9683142897499," 2912.02",144,3,1,1
"4",146,"right","SHINEd_Desk_School.jpg","incongruent","m",726.462858,"f","f","left","(862, 362)",201,1,734.721730916215,161.037998889188," 1269.39",322,4,1,1
"4",147,"right","SHINEd_Gorilla.jpg","congruent","n",539.225324,"j","j","right","(862, 362)",285,1,547.760031095153,-25.9237009318743," 1112.01",53,4,1,1
"4",148,"right","SHINEd_Megaphone.jpg","incongruent","m",405.311996,"f","f","left","(862, 362)",101,1,414.122537274091,-159.561194752936," 1918.64",6,4,1,1
"4",149,"left","SHINEd_airpump.jpg","congruent","m",529.765955,"f","f","left","(148, 362)",114,1,538.852330453028,-34.8314015739987,"  767.71",230,3,0,0
"4",150,"right","SHINEd_worm.jpg","congruent","n",846.404212,"j","j","right","(862, 362)",389,1,855.766421631966,282.082689604939,"  726.06",156,4,1,1
"4",151,"right","SHINEd_Toad.jpg","congruent","n",612.896867,"j","j","right","(862, 362)",441,1,622.534910810904,48.8511787838771,"  773.55",357,3,0,0
"4",152,"left","SHINEd_scallion.jpg","incongruent","n",673.235703,"j","j","right","(148, 362)",314,1,683.149580989842,109.465848962815," 1173.94",419,2,1,NA
"4",153,"right","SHINEd_Pacifier.jpg","incongruent","m",493.3117,"f","f","left","(862, 362)",81,1,503.50141216878,-70.1823198582474," 2837.14",119,4,1,1
"4",154,"right","SHINEd_Broccoli.jpg","congruent","n",489.668925,"j","j","right","(862, 362)",253,1,500.134471347718,-73.5492606793095,"  830.51",427,2,1,NA
"4",155,"right","SHINEd_donkey.jpg","congruent","n",493.058582,"j","j","right","(862, 362)",409,1,503.799962526655,-69.8837695003717,"  901.30",338,4,1,1
"4",156,"left","SHINEd_Slide.jpg","congruent","m",545.826391,"f","f","left","(148, 362)",82,1,556.843605705593,-16.8401263214339,"  760.88",318,4,0,0
"4",157,"right","SHINEd_FlipFlop_PairBlue.jpg","incongruent","m",477.874128,"f","f","left","(862, 362)",153,1,489.167176884531,-84.516555142496,"  815.39",147,4,1,1
"4",158,"left","SHINEd_rose.jpg","incongruent","n",512.517449,"j","j","right","(148, 362)",430,1,524.086332063469,-49.5973999635582,"  824.71",63,4,1,1
"4",159,"right","SHINEd_mosquito.jpg","congruent","n",404.394179,"j","j","right","(862, 362)",393,1,416.238896242407,-157.44483578462,"  845.68",412,3,0,0
"4",160,"left","SHINEd_Clarinet.jpg","congruent","m",521.037268,"f","f","left","(148, 362)",6,1,533.157819421345,-40.5259126056825,"  998.46",199,4,1,1
"4",161,"left","SHINEd_treestump.jpg","incongruent","n",557.467672,"j","j","right","(148, 362)",414,1,569.864057600282,-3.81967442674474," 1030.30",38,4,1,1
"4",162,"right","SHINEd_frog.jpg","congruent","n",528.686164,"j","j","right","(862, 362)",345,1,541.35838377922,-32.325348247807," 1196.84",333,3,0,0
"4",163,"right","SHINEd_Vest.jpg","incongruent","m",446.062932,"f","f","left","(862, 362)",5,1,459.010985958158,-114.672746068869," 3620.56",163,3,0,0
"4",164,"right","SHINEd_cottonplant.jpg","congruent","n",529.458682,"j","j","right","(862, 362)",297,1,542.682570137096,-31.0011618899313," 2167.14",302,2,0,0
"4",165,"left","SHINEd_Cat.jpg","incongruent","n",614.058875,"j","j","right","(148, 362)",362,1,627.558597316034,53.8748652890065," 5022.98",2,3,1,1
"4",166,"right","SHINEd_Ruler_Wooden.jpg","incongruent","m",577.94357,"f","f","left","(862, 362)",73,1,591.719126494972,18.0353944679444," 1085.31",236,3,0,0
"4",167,"left","SHINEd_Teapot.jpg","congruent","m",974.336291,"f","f","left","(148, 362)",214,1,988.387681673909,414.703949646882," 1279.95",55,3,0,0
"4",168,"left","SHINEd_Feet.jpg","incongruent","n",610.861156,"j","j","right","(148, 362)",310,1,625.188380852847,51.5046488258201," 1158.21",425,3,1,1
"4",169,"left","SHINEd_Bucket_Rusty.jpg","congruent","m",711.166037,"f","f","left","(148, 362)",34,1,725.769096031785,152.085364004758," 1407.25",110,4,1,1
"4",170,"left","SHINEd_LawnMower.jpg","congruent","m",546.493708,"f","f","left","(148, 362)",46,1,561.372601210723,-12.3111308163044," 4876.59",181,3,0,0
"4",171,"left","SHINEd_USBKey.jpg","congruent","m",445.95977,"f","f","left","(148, 362)",90,1,461.114497389661,-112.569234637366," 1014.96",308,3,0,0
"4",172,"right","SHINEd_BusStop.jpg","incongruent","m",586.781325,"f","f","left","(862, 362)",145,1,602.211886568598,28.5281545415714,"  822.39",348,4,0,0
"4",173,"left","SHINEd_Boardgame_Chess.jpg","congruent","m",549.696123,"f","f","left","(148, 362)",86,1,565.402518747536,-8.2812132794909," 1222.02",431,3,1,1
"4",174,"right","SHINEd_Binder.jpg","incongruent","m",441.901631,"f","f","left","(862, 362)",65,1,457.883860926474,-115.799871100553,"  829.61",435,4,1,1
"4",175,"right","SHINEd_pumpkinseeds-.jpg","congruent","n",524.437783,"j","j","right","(862, 362)",237,1,540.695847105412,-32.9878849216152," 2310.68",170,2,1,NA
"4",176,"left","SHINEd_TissueBox.jpg","congruent","m",641.816576,"f","f","left","(148, 362)",50,1,658.35047428435,84.6667422573227,"  965.57",191,4,1,1
"4",177,"right","SHINEd_Hat_Baseball.jpg","incongruent","m",462.846351,"f","f","left","(862, 362)",189,1,479.656083463288,-94.0276485637395," 1445.87",169,3,1,1
"4",178,"right","SHINEd_red_panda.jpg","congruent","n",577.754879,"j","j","right","(862, 362)",273,1,594.840445642225,21.1567136151982," 1207.88",37,3,1,1
"4",179,"right","SHINEd_Boat_Colourful.jpg","incongruent","m",805.702259,"f","f","left","(862, 362)",173,1,823.063659821163,249.379927794136," 1207.43",245,4,1,1
"4",180,"left","SHINEd_Hourglass.jpg","congruent","m",609.089595,"f","f","left","(148, 362)",110,1,626.726830000101,53.0430979730739," 1158.59",58,4,1,1
"4",181,"left","SHINEd_Glove_Rubber.jpg","congruent","m",685.022499,"f","f","left","(148, 362)",138,1,702.935568179039,129.251836152012," 1206.14",398,3,1,1
"4",182,"left","SHINEd_Nuts_Pecan.jpg","incongruent","n",682.476977,"j","j","right","(148, 362)",246,1,700.665880357977,126.98214833095,"  837.23",237,4,1,1
"4",183,"left","SHINEd_HairClip.jpg","congruent","m",486.730061,"f","f","left","(148, 362)",194,1,505.194798536914,-68.4889334901126," 1807.15",392,2,0,0
"4",184,"right","SHINEd_Pants_Firefighter.jpg","incongruent","m",620.702502,"f","f","left","(862, 362)",1,1,639.443073715852,65.7593416888252," 1156.10",452,4,0,0
"4",185,"right","SHINEd_rhino horn.jpg","congruent","n",672.981009,"j","j","right","(862, 362)",249,1,691.99741489479,118.313682867763," 1462.43",248,3,1,1
"4",186,"left","SHINEd_Cranberry.jpg","incongruent","n",508.034394,"j","j","right","(148, 362)",398,1,527.326634073728,-46.3570979532991," 1390.83",184,2,1,NA
"4",187,"left","SHINEd_Cheesegrater_Handheld.jpg","congruent","m",456.589464,"f","f","left","(148, 362)",162,1,476.157538252666,-97.5261937743613," 2174.70",263,3,1,1
"4",188,"right","SHINEd_ShoppingCart.jpg","incongruent","m",493.600181,"f","f","left","(862, 362)",109,1,513.444089431604,-60.2396425954235,"  798.80",194,3,0,0
"4",189,"right","SHINEd_Switch_LightWhite.jpg","incongruent","m",378.390867,"f","f","left","(862, 362)",57,1,398.510609610541,-175.173122416486,"  861.63",381,3,0,0
"4",190,"left","SHINEd_ClothCoaster.jpg","congruent","m",381.261687,"f","f","left","(148, 362)",142,1,401.657263789479,-172.026468237548,"  966.54",207,3,0,0
"4",191,"right","SHINEd_Bird_Parrot.jpg","congruent","n",345.514505,"j","j","right","(862, 362)",233,1,366.185915968417,-207.49781605861," 3342.56",167,3,1,1
"4",192,"left","SHINEd_skeleton-lizard.jpg","incongruent","n",NA,"miss","j","right","(148, 362)",250,0,NA,NA,"  813.71",40,4,1,1
"4",193,"left","SHINEd_Gecko.jpg","incongruent","n",522.183865,"j","j","right","(148, 362)",370,1,543.406944326293,-30.2767877007344," 1360.71",247,3,0,0
"4",194,"left","SHINEd_Cane_Metal.jpg","congruent","m",654.983462,"f","f","left","(148, 362)",190,1,676.482375505231,102.798643478203," 1806.58",18,3,1,1
"4",195,"right","SHINEd_DeepFryer.jpg","incongruent","m",595.061409,"f","f","left","(862, 362)",161,1,616.836156684168,43.1524246571413,"  990.36",278,3,0,0
"4",196,"right","SHINEd_Giraffe.jpg","congruent","n",638.707194,"j","j","right","(862, 362)",381,1,660.757775863106,87.0740438360791," 1094.13",261,3,0,0
"4",197,"right","SHINEd_cheetah.jpg","congruent","n",555.429259,"j","j","right","(862, 362)",245,1,577.755675042044,4.07194301501693,"  852.87",370,3,0,0
"4",198,"left","SHINEd_discoball.jpg","congruent","m",397.583339,"f","f","left","(148, 362)",226,1,420.185589220982,-153.498142806045," 1397.88",130,3,1,1
"4",199,"left","SHINEd_Bowl_Fruits.jpg","incongruent","n",577.689011,"j","j","right","(148, 362)",434,1,600.56709539992,26.8833633728926," 1173.88",31,4,1,1
"4",200,"right","SHINEd_Fish_Rockbass.jpg","congruent","n",845.702417,"j","j","right","(862, 362)",341,1,868.856335578857,295.17260355183," 1471.37",71,3,1,1
"4",201,"left","SHINEd_ElectricOutlet.jpg","congruent","m",529.124187,"f","f","left","(148, 362)",102,1,552.553939757795,-21.1297922692318,"  758.58",399,3,0,0
"4",202,"left","SHINEd_red_Cabbage.jpg","incongruent","n",557.262362,"j","j","right","(148, 362)",230,1,580.967948936733,7.2842169097061,"  885.86",148,4,1,1
"4",203,"right","SHINEd_horse.jpg","congruent","n",465.603526,"j","j","right","(862, 362)",269,1,489.584947115671,-84.0987849113561," 1774.33",360,3,1,1
"4",204,"right","SHINEd_Leaf_Clover.jpg","congruent","n",526.27751,"j","j","right","(862, 362)",449,1,550.534765294609,-23.1489667324183,"  662.40",32,4,1,1
"4",205,"left","SHINEd_peacockfeather.jpg","incongruent","n",442.165209,"j","j","right","(148, 362)",382,1,466.698298473547,-106.98543355348,"  830.70",337,4,1,1
"4",206,"left","SHINEd_brownbeans.jpg","incongruent","n",461.766416,"j","j","right","(148, 362)",366,1,486.575339652484,-87.1083923745427," 1365.36",67,4,1,1
"4",207,"left","SHINEd_Bicycle_Kids.jpg","congruent","m",498.431426,"f","f","left","(148, 362)",26,1,523.516183831422,-50.1675481956049,"  966.32",218,3,0,0
"4",208,"right","SHINEd_HotWaterBottle.jpg","incongruent","m",501.089087,"f","f","left","(862, 362)",113,1,526.44967901036,-47.234053016667,"  984.04",81,4,1,1
"4",209,"left","SHINEd_Nuts_Walnut.jpg","incongruent","n",506.305901,"j","j","right","(148, 362)",446,1,531.942327189298,-41.7414048377292," 1223.73",294,3,1,1
"4",210,"left","SHINEd_Mask_HockeyGoalie.jpg","congruent","m",631.188339,"f","f","left","(148, 362)",126,1,657.100599368236,83.4168673412087," 1094.18",27,4,1,1
"4",211,"right","SHINEd_Knee.jpg","congruent","n",722.400444,"j","j","right","(862, 362)",309,1,748.588538547174,174.904806520146,"  892.21",208,4,1,1
"4",212,"right","SHINEd_DogHouse.jpg","incongruent","m",525.732616,"f","f","left","(862, 362)",165,1,552.196544726111,-21.4871873009157," 1311.12",216,2,0,0
"4",213,"left","SHINEd_ladybug.jpg","incongruent","n",482.011796,"j","j","right","(148, 362)",238,1,508.751558905049,-64.9321731219779," 3317.51",50,2,0,0
"4",214,"right","SHINEd_Carrot.jpg","congruent","n",478.889707,"j","j","right","(862, 362)",281,1,505.905304083987,-67.7784279430401," 4470.40",185,2,1,NA
"4",215,"right","SHINEd_Skates.jpg","incongruent","m",539.205232,"f","f","left","(862, 362)",125,1,566.496663262925,-7.18706876410222,"  878.98",109,3,0,0
"4",216,"left","SHINEd_Dragonfly.jpg","incongruent","n",742.595571,"j","j","right","(148, 362)",346,1,770.162836441863,196.479104414836," 1389.51",238,4,1,1
"4",217,"left","SHINEd_Helmet_Bicycle.jpg","congruent","m",883.608864,"f","f","left","(148, 362)",18,1,911.4519636208,337.768231593773," 4900.94",453,2,1,NA
"4",218,"left","SHINEd_eucalyptus.jpg","incongruent","n",574.09957,"j","j","right","(148, 362)",282,1,602.218503799738,28.5347717727112," 1967.75",112,3,1,1
"4",219,"right","SHINEd_Colander.jpg","incongruent","m",530.77442,"f","f","left","(862, 362)",41,1,559.169187978676,-14.514544048351," 1047.35",309,3,0,0
"4",220,"left","SHINEd_Deodorant.jpg","congruent","m",535.478816,"f","f","left","(148, 362)",118,1,564.149418157614,-9.53431386941307," 1654.26",45,4,1,1
"4",221,"left","SHINEd_Mirror_Makeup.jpg","congruent","m",493.178607,"f","f","left","(148, 362)",122,1,522.125043336552,-51.5586886904753,"  702.10",456,4,1,1
"4",222,"right","SHINEd_Bird_Eagle.jpg","congruent","n",489.62125,"j","j","right","(862, 362)",257,1,518.84352051549,-54.8402115115375,"  997.79",363,4,1,1
"4",223,"left","SHINEd_Heater_Outdoor.jpg","congruent","m",390.01618,"f","f","left","(148, 362)",170,1,419.514284694427,-154.1694473326,"  957.51",347,4,0,0
"4",224,"left","SHINEd_Lynx.jpg","incongruent","n",466.776138,"j","j","right","(148, 362)",438,1,496.550076873365,-77.1336551536618," 1310.20",384,3,1,1
"4",225,"right","SHINEd_Cannon.jpg","incongruent","m",528.359254,"f","f","left","(862, 362)",61,1,558.409027052303,-15.274704974724,"  646.06",70,4,1,1
"4",226,"left","SHINEd_Calculator.jpg","congruent","m",435.063406,"f","f","left","(148, 362)",94,1,465.389013231241,-108.294718795786," 4469.47",106,2,1,NA
"4",227,"left","SHINEd_skunk.jpg","incongruent","n",535.321508,"j","j","right","(148, 362)",290,1,565.922949410179,-7.76078261684836," 1062.43",249,3,1,1
"4",228,"left","SHINEd_avocado.jpg","incongruent","n",492.476262,"j","j","right","(148, 362)",394,1,523.353537589117,-50.3301944379105,"  773.18",401,3,0,0
