"participant","trial_index","screenposition","stimulus","trialtype","classifyenc","rt","response","responsecorrect","responsecorrect_side","screenlocation","stimnum","acc","rtResidual","rtResidualC","rt_rec","trialno_rec","ratingConfidence","acc_rec","memoryHits.hc"
"51",1,"left","SHINEd_Helmet_Bicycle.jpg","incongruent","m",665.743784,"j","j","right","(148, 362)",18,1,641.264730120694,59.5932635180151,"  640.05",188,2,0,0
"51",2,"left","SHINEd_Tomato.jpg","congruent","n",NA,"miss","f","left","(148, 362)",450,0,NA,NA," 1057.35",339,4,1,1
"51",3,"right","SHINEd_Bottle_Beer.jpg","congruent","m",695.972958,"j","j","right","(862, 362)",213,1,671.923748362365,90.2522817596866," 1036.28",52,4,1,1
"51",4,"left","SHINEd_Briefcase_Leather.jpg","incongruent","m",610.767635,"j","j","right","(148, 362)",210,1,586.933347483204,5.26188088052561,"  999.05",18,4,1,1
"51",5,"right","SHINEd_HotWaterBottle.jpg","congruent","m",806.413378,"j","j","right","(862, 362)",113,1,782.794012604043,201.122546001365,"  852.01",123,4,1,1
"51",6,"left","SHINEd_Swing_Child.jpg","incongruent","m",762.670996,"j","j","right","(148, 362)",166,1,739.266552724882,157.595086122204,"  888.35",278,4,1,1
"51",7,"right","SHINEd_Bells_Christmas.jpg","congruent","m",837.323486,"j","j","right","(862, 362)",225,1,814.133964845721,232.462498243043," 9292.18",156,1,1,NA
"51",8,"left","SHINEd_Flashlight.jpg","incongruent","m",472.731516,"j","j","right","(148, 362)",98,1,449.75691696656,-131.914549636118," 1038.70",222,3,0,0
"51",9,"left","SHINEd_Dragonfly.jpg","congruent","n",630.035221,"f","f","left","(148, 362)",346,1,607.275544087399,25.6040774847207," 1773.78",372,1,0,0
"51",10,"right","SHINEd_Lychee.jpg","incongruent","n",865.201317,"f","f","left","(862, 362)",321,1,842.656562208238,260.98509560556," 1096.53",367,4,1,1
"51",11,"right","SHINEd_Dice.jpg","congruent","m",612.272913,"j","j","right","(862, 362)",89,1,589.943080329077,8.27161372639877," 1264.45",118,4,1,1
"51",12,"right","SHINEd_WatermelonSlice.jpg","incongruent","n",729.43532,"f","f","left","(862, 362)",325,1,707.320409449916,125.648942847238," 1030.41",256,4,1,1
"51",13,"right","SHINEd_Ruler_Wooden.jpg","congruent","m",509.296326,"j","j","right","(862, 362)",73,1,487.396337570755,-94.2751290319232,"  916.30",296,4,1,1
"51",14,"right","SHINEd_mizuna.jpg","incongruent","n",630.172263,"f","f","left","(862, 362)",429,1,608.487196691594,26.8157300889159,"  870.92",74,4,1,1
"51",15,"right","SHINEd_DeepFryer.jpg","congruent","m",531.145413,"j","j","right","(862, 362)",161,1,509.675268812433,-71.9961977902452,"  912.91",116,4,1,1
"51",16,"left","SHINEd_DustPan.jpg","incongruent","m",693.224506,"j","j","right","(148, 362)",54,1,671.969283933273,90.2978173305939," 1207.98",122,4,0,0
"51",17,"right","SHINEd_Makeup_Compact.jpg","congruent","m",857.046565,"j","j","right","(862, 362)",121,1,836.006265054112,254.334798451433," 1070.41",171,1,0,0
"51",18,"right","SHINEd_okapi.jpg","incongruent","n",589.030535,"f","f","left","(862, 362)",425,1,568.205157174951,-13.4663094277281," 1207.87",25,4,1,1
"51",19,"left","SHINEd_TissueBox.jpg","incongruent","m",824.428741,"j","j","right","(148, 362)",50,1,803.81828529579,222.146818693111,"  932.49",35,4,1,1
"51",20,"right","SHINEd_Colander.jpg","congruent","m",522.776576,"j","j","right","(862, 362)",41,1,502.381042416629,-79.29042418605," 1040.41",336,4,1,1
"51",21,"left","SHINEd_Door_Green.jpg","incongruent","m",687.790518,"j","j","right","(148, 362)",106,1,667.609906537468,85.938439934789,"  911.69",126,4,1,1
"51",22,"right","SHINEd_Quartz.jpg","incongruent","n",873.784262,"j","f","left","(862, 362)",401,0,853.818572658307,272.147106055628,"  745.72",231,4,1,1
"51",23,"left","SHINEd_Goat.jpg","congruent","n",614.777485,"f","f","left","(148, 362)",322,1,595.026717779146,13.355251176467,"  801.35",233,4,1,1
"51",24,"right","SHINEd_Leaf_Clover.jpg","incongruent","n",417.531392,"j","f","left","(862, 362)",449,0,397.995546899985,-183.675919702694,"  749.51",326,4,1,1
"51",25,"right","SHINEd_DentalFloss.jpg","congruent","m",606.529565,"j","j","right","(862, 362)",117,1,587.208642020824,5.53717541814517," 1078.08",202,3,0,0
"51",26,"right","SHINEd_Leek.jpg","incongruent","n",616.777982,"f","f","left","(862, 362)",357,1,597.671981141663,16.0005145389841,"  880.51",215,4,1,1
"51",27,"left","SHINEd_Bird_Pelican.jpg","congruent","n",612.248049,"f","f","left","(148, 362)",402,1,593.356970262502,11.6855036598232," 1303.28",448,2,1,NA
"51",28,"left","SHINEd_Butterfly.jpg","congruent","n",674.335852,"f","f","left","(148, 362)",318,1,655.659695383341,73.9882287806623," 2116.32",97,4,1,1
"51",29,"left","SHINEd_Bench_Black.jpg","incongruent","m",605.934067,"j","j","right","(148, 362)",206,1,587.47283250418,5.80136590150126,"  966.30",412,3,0,0
"51",30,"left","SHINEd_raccoon.jpg","congruent","n",584.468422,"f","f","left","(148, 362)",262,1,566.222109625019,-15.4493569776597," 1080.41",91,4,1,1
"51",31,"right","SHINEd_brusselsprouts.jpg","incongruent","n",692.732008,"f","f","left","(862, 362)",265,1,674.700617745858,93.0291511431792," 1273.44",405,4,1,1
"51",32,"right","SHINEd_pickle.jpg","incongruent","n",493.662846,"f","f","left","(862, 362)",373,1,475.846377866697,-105.825088735982," 1173.10",298,4,1,1
"51",33,"left","SHINEd_Lynx.jpg","congruent","n",473.7389,"f","f","left","(148, 362)",438,1,456.137353987536,-125.534112615143,"  829.26",119,4,1,1
"51",34,"left","SHINEd_Drill.jpg","incongruent","m",556.787981,"j","j","right","(148, 362)",30,1,539.401357108375,-42.2701094943037," 1643.33",77,3,0,0
"51",35,"right","SHINEd_Magnifying_Glass.jpg","congruent","m",648.95438,"j","j","right","(862, 362)",105,1,631.782678229214,50.1112116265354," 1134.13",54,1,0,0
"51",36,"left","SHINEd_couch.jpg","incongruent","m",563.551185,"j","j","right","(148, 362)",202,1,546.594405350053,-35.0770612526255,"  791.76",403,4,1,1
"51",37,"left","SHINEd_eucalyptus.jpg","congruent","n",567.603768,"f","f","left","(148, 362)",282,1,550.861910470892,-30.8095561317866,"  953.01",161,4,1,1
"51",38,"right","SHINEd_catcus.jpg","incongruent","n",593.486356,"f","f","left","(862, 362)",313,1,576.959420591731,-4.71204601094753,"  735.30",191,4,1,1
"51",39,"left","SHINEd_treestump.jpg","congruent","n",606.380691,"f","f","left","(148, 362)",414,1,590.06867771257,8.39721110989146," 1510.09",138,4,1,1
"51",40,"left","SHINEd_discoball.jpg","incongruent","m",608.490051,"j","j","right","(148, 362)",226,1,592.392959833409,10.7214932307305," 1008.53",357,1,0,0
"51",41,"left","SHINEd_antlers.jpg","congruent","n",766.427738,"f","f","left","(148, 362)",418,1,750.545568954248,168.87410235157,"  988.09",417,3,0,0
"51",42,"right","SHINEd_Gorilla.jpg","incongruent","n",547.333116,"f","f","left","(862, 362)",285,1,531.665869075087,-50.0055975275914,"  917.48",352,4,0,0
"51",43,"right","SHINEd_RecordPlayer.jpg","congruent","m",629.203747,"j","j","right","(862, 362)",149,1,613.751422195926,32.0799555932476,"  911.61",184,4,1,1
"51",44,"right","SHINEd_Carrot.jpg","incongruent","n",570.225587,"f","f","left","(862, 362)",281,1,554.988184316765,-26.6832822859133,"  782.16",332,4,1,1
"51",45,"right","SHINEd_Oyster.jpg","incongruent","n",893.01204,"f","f","left","(862, 362)",433,1,877.989559437604,296.318092834926," 1081.78",23,4,1,1
"51",46,"right","SHINEd_Boat_Colourful.jpg","congruent","m",536.928805,"j","j","right","(862, 362)",173,1,522.121246558443,-59.5502200442353,"  957.72",134,4,1,1
"51",47,"right","SHINEd_Dog_ChowChow.jpg","incongruent","n",484.443885,"f","f","left","(862, 362)",369,1,469.851248679282,-111.820217923396,"  868.78",206,4,1,1
"51",48,"right","SHINEd_artichoke.jpg","incongruent","n",479.885727,"f","f","left","(862, 362)",453,1,465.508012800121,-116.163453802557," 1126.59",56,4,1,1
"51",49,"right","SHINEd_FlipFlop_PairBlue.jpg","congruent","m",466.078357,"j","j","right","(862, 362)",153,1,451.91556492096,-129.755901681718,"  727.02",430,4,1,1
"51",50,"left","SHINEd_Lipstick.jpg","incongruent","m",598.425749,"j","j","right","(148, 362)",198,1,584.477879041799,2.80641243912079,"  757.51",436,3,0,0
"51",51,"left","SHINEd_Cat.jpg","congruent","n",483.298471,"f","f","left","(148, 362)",362,1,469.565523162638,-112.10594344004," 1365.20",70,3,1,1
"51",52,"right","SHINEd_Mattress.jpg","congruent","m",478.088535,"j","j","right","(862, 362)",49,1,464.570509283477,-117.100957319201,"  950.68",110,4,1,1
"51",53,"right","SHINEd_Bird_Parrot.jpg","incongruent","n",433.765069,"f","f","left","(862, 362)",233,1,420.461965404316,-161.209501198362,"  919.43",300,4,1,1
"51",54,"right","SHINEd_fountain.jpg","congruent","m",461.717137,"j","j","right","(862, 362)",169,1,448.628955525155,-133.042511077523," 1319.68",350,3,0,0
"51",55,"left","SHINEd_Nail.jpg","incongruent","m",488.902689,"j","j","right","(148, 362)",38,1,476.029429645995,-105.642036956684," 1084.24",451,3,0,0
"51",56,"right","SHINEd_dragonfruit.jpg","incongruent","n",NA,"miss","f","left","(862, 362)",437,0,NA,NA,"  623.99",131,4,1,1
"51",57,"left","SHINEd_Radish.jpg","congruent","n",575.289249,"f","f","left","(148, 362)",242,1,562.845833887673,-18.825632715006,"  976.48",329,4,0,0
"51",58,"left","SHINEd_Slippers.jpg","incongruent","m",507.915756,"j","j","right","(148, 362)",154,1,495.687263008512,-85.984203594167," 1339.78",364,4,1,1
"51",59,"right","SHINEd_Skates.jpg","congruent","m",639.011197,"j","j","right","(862, 362)",125,1,626.997626129351,45.3261595266721,"  793.71",150,3,0,0
"51",60,"left","SHINEd_Teapot.jpg","incongruent","m",555.863297,"j","j","right","(148, 362)",214,1,544.06464825019,-37.606818352489,"  927.33",398,3,0,0
"51",61,"right","SHINEd_Turtle.jpg","incongruent","n",646.054796,"j","f","left","(862, 362)",305,0,634.471069371029,52.7996027683501,"  879.64",381,4,0,0
"51",62,"right","SHINEd_Camera_Video.jpg","congruent","m",681.473704,"j","j","right","(862, 362)",97,1,670.104899491868,88.4334328891891," 1173.89",286,3,0,0
"51",63,"right","SHINEd_white_strawberries.jpg","incongruent","n",438.652653,"f","f","left","(862, 362)",417,1,427.498770612707,-154.172695989972," 1674.38",58,2,0,0
"51",64,"left","SHINEd_RamAnimal.jpg","congruent","n",499.191833,"f","f","left","(148, 362)",454,1,488.252872733546,-93.4185938691328,"  972.16",66,3,1,1
"51",65,"right","SHINEd_orchid.jpg","incongruent","n",566.304117,"j","f","left","(862, 362)",261,0,555.580078854385,-26.0913877482938," 5065.45",10,2,1,NA
"51",66,"left","SHINEd_brownbeans.jpg","congruent","n",531.347827,"f","f","left","(148, 362)",366,1,520.838710975224,-60.8327556274547," 1172.73",95,4,1,1
"51",67,"right","SHINEd_starfruit.jpg","incongruent","n",398.451636,"f","f","left","(862, 362)",317,1,388.157442096063,-193.514024506616," 3344.29",2,4,1,1
"51",68,"left","SHINEd_Box_Notepaper.jpg","incongruent","m",566.415181,"j","j","right","(148, 362)",70,1,556.335909216902,-25.3355573857768,"  932.81",261,4,1,1
"51",69,"left","SHINEd_skeleton-lizard.jpg","congruent","n",650.370805,"f","f","left","(148, 362)",250,1,640.506455337741,58.8349887350623,"  815.81",371,4,1,1
"51",70,"left","SHINEd_Clarinet.jpg","incongruent","m",725.591159,"j","j","right","(148, 362)",6,1,715.94173145858,134.270264855901,"  660.37",88,1,0,0
"51",71,"right","SHINEd_Wheel_Steering.jpg","congruent","m",506.544939,"j","j","right","(862, 362)",185,1,497.110433579419,-84.5610330232596,"  765.35",281,4,1,1
"51",72,"left","SHINEd_Clip_Paper.jpg","incongruent","m",453.83043,"f","j","right","(148, 362)",66,0,444.610846700258,-137.060619902421,"  605.77",159,1,0,0
"51",73,"right","SHINEd_Gametable_AirHockey.jpg","congruent","m",385.773564,"j","j","right","(862, 362)",85,1,376.768902821097,-204.902563781582," 1199.04",392,4,1,1
"51",74,"left","SHINEd_ElectricOutlet.jpg","incongruent","m",645.405211,"j","j","right","(148, 362)",102,1,636.615471941936,54.9440053392575,"  852.06",43,4,1,1
"51",75,"right","SHINEd_Vase_Decorative copy.jpg","congruent","m",551.474988,"j","j","right","(862, 362)",221,1,542.900171062775,-38.7712955399035," 1591.38",308,3,0,0
"51",76,"left","SHINEd_Feet.jpg","congruent","n",620.182038,"f","f","left","(148, 362)",310,1,611.822143183614,30.1506765809355," 1285.44",153,4,1,1
"51",77,"left","SHINEd_MobilityScooter.jpg","incongruent","m",622.091266,"j","j","right","(148, 362)",182,1,613.946293304453,32.2748267017745,"  862.54",318,4,1,1
"51",78,"right","SHINEd_Escalator.jpg","congruent","m",377.905049,"j","j","right","(862, 362)",177,1,369.974998425292,-211.696468177386,"  811.58",146,3,0,0
"51",79,"right","SHINEd_dinosaur fossil.jpg","incongruent","n",390.44934,"j","f","left","(862, 362)",377,0,382.734211546131,-198.937255056547," 1958.60",290,2,1,NA
"51",80,"right","SHINEd_HairDryer.jpg","congruent","m",457.004312,"j","j","right","(862, 362)",45,1,449.50410566697,-132.167360935708,"  988.98",76,1,0,0
"51",81,"right","SHINEd_koala.jpg","incongruent","n",492.990744,"f","f","left","(862, 362)",365,1,485.705459787809,-95.9660068148694,"  837.30",36,4,1,1
"51",82,"right","SHINEd_Pacifier.jpg","congruent","m",583.657346,"j","j","right","(862, 362)",81,1,576.586983908648,-5.08448269403038," 1625.52",173,3,0,0
"51",83,"right","SHINEd_catfish.jpg","incongruent","n",690.941456,"f","f","left","(862, 362)",361,1,684.086016029487,102.414549426809,"  989.53",319,4,1,1
"51",84,"left","SHINEd_purple_yam.jpg","congruent","n",766.937985,"f","f","left","(148, 362)",442,1,760.297467150326,178.626000547648," 1208.59",44,4,1,1
"51",85,"right","SHINEd_frog.jpg","incongruent","n",746.127473,"f","f","left","(862, 362)",345,1,739.701877271165,158.030410668487," 1004.39",251,4,1,1
"51",86,"left","SHINEd_avocado.jpg","congruent","n",566.766212,"f","f","left","(148, 362)",394,1,560.555538392004,-21.1159282106742," 1567.09",375,4,0,0
"51",87,"left","SHINEd_pomegrant.jpg","congruent","n",NA,"miss","f","left","(148, 362)",354,0,NA,NA," 1774.76",266,3,0,0
"51",88,"left","SHINEd_Mask_HockeyGoalie.jpg","incongruent","m",644.895141,"j","j","right","(148, 362)",126,1,639.114311633682,57.4428450310038," 2111.97",284,1,0,0
"51",89,"right","SHINEd_Drum_Bongos.jpg","congruent","m",642.63902,"j","j","right","(862, 362)",9,1,637.073112754521,55.4016461518428," 1074.56",210,4,1,1
"51",90,"right","SHINEd_soil.jpg","incongruent","n",462.963604,"f","f","left","(862, 362)",289,1,457.61261887536,-124.058847727318," 1181.43",274,4,1,1
"51",91,"right","SHINEd_goldenberry.jpg","incongruent","n",481.366404,"f","f","left","(862, 362)",397,1,476.2303409962,-105.441125606479,"  814.57",289,3,0,0
"51",92,"left","SHINEd_greenapple.jpg","congruent","n",437.421774,"f","f","left","(148, 362)",410,1,432.500633117039,-149.17083348564,"  724.01",204,4,1,1
"51",93,"right","SHINEd_horse.jpg","incongruent","n",489.298958,"f","f","left","(862, 362)",269,1,484.592739237878,-97.078727364801,"  885.31",248,2,1,NA
"51",94,"left","SHINEd_hyena.jpg","congruent","n",413.086308,"f","f","left","(148, 362)",422,1,408.595011358717,-173.076455243962," 1368.21",30,4,1,1
"51",95,"right","SHINEd_platypus.jpg","incongruent","n",367.46209,"f","f","left","(862, 362)",293,1,363.185715479556,-218.485751123123," 1352.73",65,2,0,0
"51",96,"right","SHINEd_Paw.jpg","incongruent","n",786.910085,"f","f","left","(862, 362)",301,1,782.848632600395,201.177165997716," 1192.70",67,4,1,1
"51",97,"left","SHINEd_lotusroot.jpg","congruent","n",703.215739,"f","f","left","(148, 362)",298,1,699.369208721234,117.697742118555,"  973.55",230,3,0,0
"51",98,"left","SHINEd_Weights_Dumbells.jpg","incongruent","m",649.778934,"j","j","right","(148, 362)",22,1,646.147325842073,64.4758592393941,"  807.00",232,4,1,1
"51",99,"left","SHINEd_Pumpkin.jpg","congruent","n",638.495845,"f","f","left","(148, 362)",294,1,635.079158962912,53.4076923602331," 2297.39",9,4,1,1
"51",100,"left","SHINEd_Boot_Rain.jpg","incongruent","m",689.10111,"j","j","right","(148, 362)",150,1,685.899346083751,104.227879481072,"  854.43",194,4,1,1
"51",101,"left","SHINEd_Fryingpan.jpg","incongruent","m",637.514706,"j","j","right","(148, 362)",158,1,634.52786420459,52.8563976019112,"  967.02",411,3,0,0
"51",102,"left","SHINEd_grasshopper.jpg","congruent","n",536.54044,"f","f","left","(148, 362)",286,1,533.768520325429,-47.9029462772498," 2220.36",103,4,1,1
"51",103,"right","SHINEd_whale.jpg","incongruent","n",468.121987,"f","f","left","(862, 362)",421,1,465.564989446268,-116.106477156411,"  874.08",197,4,1,1
"51",104,"left","SHINEd_Fruit_Orange.jpg","congruent","n",481.836029,"f","f","left","(148, 362)",302,1,479.493953567107,-102.177513035572," 1100.90",237,3,0,0
"51",105,"left","SHINEd_Cantaloupe.jpg","congruent","n",462.453676,"f","f","left","(148, 362)",338,1,460.326522687946,-121.344943914733," 1540.27",380,4,0,0
"51",106,"right","SHINEd_Tree_Fir.jpg","incongruent","n",528.782257,"f","f","left","(862, 362)",229,1,526.870025808785,-54.8014407938937," 1019.54",424,3,0,0
"51",107,"left","SHINEd_Nuts_Pecan.jpg","congruent","n",395.865431,"f","f","left","(148, 362)",246,1,394.168121929624,-187.503344673055,"  917.95",418,4,1,1
"51",108,"right","SHINEd_Giraffe.jpg","incongruent","n",384.257188,"f","f","left","(862, 362)",381,1,382.774801050463,-198.896665552216,"  828.67",312,4,1,1
"51",109,"left","SHINEd_SkullDeer.jpg","congruent","n",380.530487,"f","f","left","(148, 362)",278,1,379.263022171302,-202.408444431377,"  835.72",456,3,0,0
"51",110,"right","SHINEd_mosquito.jpg","incongruent","n",423.566122,"f","f","left","(862, 362)",393,1,422.513579292141,-159.157887310538,"  943.34",192,3,0,0
"51",111,"right","SHINEd_Pants_Firefighter.jpg","congruent","m",748.444105,"j","j","right","(862, 362)",1,1,747.60648441298,165.935017810301,"  999.72",104,4,1,1
"51",112,"left","SHINEd_Heater_Outdoor.jpg","incongruent","m",654.059866,"j","j","right","(148, 362)",170,1,653.437167533819,71.7657009311405,"  904.87",264,4,1,1
"51",113,"right","SHINEd_Carabiner_Orange.jpg","congruent","m",554.065418,"j","j","right","(862, 362)",29,1,553.657641654658,-28.0138249480205,"  886.67",438,4,1,1
"51",114,"left","SHINEd_mushroom_other.jpg","congruent","n",461.53556,"f","f","left","(148, 362)",426,1,461.342705775497,-120.328760827181,"  981.38",32,3,0,0
"51",115,"right","SHINEd_Elephant.jpg","incongruent","n",553.707587,"f","f","left","(862, 362)",349,1,553.729654896336,-27.9418117063425,"  904.51",198,3,0,0
"51",116,"right","SHINEd_Hat_Baseball.jpg","congruent","m",605.563069,"j","j","right","(862, 362)",189,1,605.800059017175,24.1285924144966," 1316.10",383,3,1,1
"51",117,"left","SHINEd_CasketOpen.jpg","incongruent","m",674.141898,"j","j","right","(148, 362)",218,1,674.593810138014,92.9223435353356," 1093.33",99,4,1,1
"51",118,"right","SHINEd_Vest.jpg","congruent","m",541.577067,"j","j","right","(862, 362)",5,1,542.243901258853,-39.4275653438253," 2527.32",16,4,1,1
"51",119,"left","SHINEd_airpump.jpg","incongruent","m",856.187997,"j","j","right","(148, 362)",114,1,857.069753379692,275.398286777014," 1990.56",50,2,1,NA
"51",120,"left","SHINEd_Grape.jpg","congruent","n",627.626266,"f","f","left","(148, 362)",274,1,628.722944500531,47.0514778978527,"  974.79",442,3,0,0
"51",121,"left","SHINEd_PictureFrame.jpg","incongruent","m",624.650322,"j","j","right","(148, 362)",222,1,625.96192262137,44.2904560186917," 1390.52",265,3,1,1
"51",122,"right","SHINEd_Gloves_WhiteKnit.jpg","congruent","m",885.625867,"j","j","right","(862, 362)",197,1,887.152389742209,305.480923139531,"  663.37",111,4,1,1
"51",123,"right","SHINEd_Bird_Eagle.jpg","incongruent","n",550.415973,"f","f","left","(862, 362)",257,1,552.157417863048,-29.5140487396302,"  736.61",130,4,1,1
"51",124,"right","SHINEd_cheetah.jpg","incongruent","n",410.850737,"f","f","left","(862, 362)",245,1,412.807103983887,-168.864362618791,"  821.32",277,4,1,1
"51",125,"right","SHINEd_Bottle_Blue.jpg","congruent","m",462.862625,"j","j","right","(862, 362)",217,1,465.033914104726,-116.637552497952," 1094.81",433,3,1,1
"51",126,"left","SHINEd_ClothCoaster.jpg","incongruent","m",568.336998,"j","j","right","(148, 362)",142,1,570.723209225565,-10.9482573771132,"  809.62",313,3,0,0
"51",127,"left","SHINEd_scallion.jpg","congruent","n",524.522047,"f","f","left","(148, 362)",314,1,527.123180346405,-54.5482862562741," 1102.16",68,4,1,1
"51",128,"left","SHINEd_Slide.jpg","incongruent","m",495.282117,"j","j","right","(148, 362)",82,1,498.098172467244,-83.5732941354351,"  817.04",144,3,0,0
"51",129,"left","SHINEd_skunk.jpg","congruent","n",643.330071,"f","f","left","(148, 362)",290,1,646.361048588082,64.6895819854039," 1015.41",377,4,1,1
"51",130,"left","SHINEd_HairClip.jpg","incongruent","m",646.395625,"j","j","right","(148, 362)",194,1,649.641524708922,67.9700581062429,"  638.94",37,4,1,1
"51",131,"left","SHINEd_Bowl_Fruits.jpg","congruent","n",537.108238,"f","f","left","(148, 362)",434,1,540.569059829761,-41.102406772918," 1144.03",253,4,0,0
"51",132,"left","SHINEd_rabbitt.jpg","congruent","n",404.856398,"f","f","left","(148, 362)",350,1,408.5321419506,-173.139324652079,"  696.28",41,4,1,1
"51",133,"right","SHINEd_Lilypad.jpg","incongruent","n",577.463428,"f","f","left","(862, 362)",413,1,581.354094071439,-0.317372531239953," 1222.02",379,4,1,1
"51",134,"right","SHINEd_Switch_LightWhite.jpg","congruent","m",467.739044,"j","j","right","(862, 362)",57,1,471.844632192278,-109.826834410401," 1006.43",260,4,0,0
"51",135,"right","SHINEd_Toad.jpg","incongruent","n",399.688438,"j","f","left","(862, 362)",441,0,404.008948313117,-177.662518289562," 1726.07",354,2,1,NA
"51",136,"right","SHINEd_red_panda.jpg","incongruent","n",652.31071,"f","f","left","(862, 362)",273,1,656.846142433956,75.1746758312771,"  917.81",269,4,1,1
"51",137,"right","SHINEd_Desk_School.jpg","congruent","m",495.607555,"j","j","right","(862, 362)",201,1,500.357909554795,-81.3135570478839,"  958.31",345,4,1,1
"51",138,"right","SHINEd_Bleachers.jpg","congruent","m",515.121471,"j","j","right","(862, 362)",133,1,520.086747675634,-61.5847189270448," 1101.50",428,3,0,0
"51",139,"left","SHINEd_Bucket_Rusty.jpg","incongruent","m",878.532365,"j","j","right","(148, 362)",34,1,883.712563796473,302.041097193794,"  851.08",271,3,0,0
"51",140,"right","SHINEd_Saw.jpg","congruent","m",629.286689,"j","j","right","(862, 362)",33,1,634.681809917312,53.0103433146332,"  997.34",349,4,0,0
"51",141,"left","SHINEd_Boardgame_Chess.jpg","incongruent","m",711.610293,"j","j","right","(148, 362)",86,1,717.220336038151,135.548869435472,"  973.53",226,4,1,1
"51",142,"left","SHINEd_Seashell_BayScallop.jpg","congruent","n",490.165778,"f","f","left","(148, 362)",270,1,495.99074315899,-85.6807234436887,"  648.19",244,4,1,1
"51",143,"right","SHINEd_worm.jpg","incongruent","n",749.455246,"f","f","left","(862, 362)",389,1,755.495133279829,173.82366667715," 2407.79",445,1,1,NA
"51",144,"left","SHINEd_red_Cabbage.jpg","congruent","n",610.499694,"f","f","left","(148, 362)",230,1,616.754503400668,35.0830367979893,"  853.41",437,3,0,0
"51",145,"left","SHINEd_Ball_Basketball.jpg","incongruent","m",684.047634,"j","j","right","(148, 362)",130,1,690.517365521507,108.845898918828," 1053.96",450,3,1,1
"51",146,"left","SHINEd_Bicycle_Kids.jpg","incongruent","m",512.163519,"j","j","right","(148, 362)",26,1,518.848172642346,-62.8232939603327," 1068.18",369,4,0,0
"51",147,"right","SHINEd_BowlingPin.jpg","congruent","m",651.59409,"j","j","right","(862, 362)",25,1,658.493665763185,76.8221991605065," 1281.54",85,4,1,1
"51",148,"left","SHINEd_ChalkboardEraser.jpg","incongruent","m",513.340962,"j","j","right","(148, 362)",62,1,520.455459884024,-61.2160067186546,"  939.44",330,4,1,1
"51",149,"left","SHINEd_rose.jpg","congruent","n",587.440799,"f","f","left","(148, 362)",430,1,594.770219004863,13.0987524021844," 1045.06",40,4,1,1
"51",150,"right","SHINEd_ChainRusty.jpg","congruent","m",552.162446,"j","j","right","(862, 362)",21,1,559.706788125702,-21.9646784769765,"  847.67",221,4,1,1
"51",151,"right","SHINEd_BasketballHoop.jpg","congruent","m",443.75126,"j","j","right","(862, 362)",129,1,451.510524246541,-130.160942356137,"  927.84",421,4,1,1
"51",152,"left","SHINEd_Kite_Rainbow.jpg","incongruent","m",687.791525,"j","j","right","(148, 362)",78,1,695.76571136738,114.094244764702,"  981.97",416,4,1,1
"51",153,"left","SHINEd_Deodorant.jpg","incongruent","m",932.067739,"j","j","right","(148, 362)",118,1,940.256847488219,358.585380885541,"  920.30",325,4,1,1
"51",154,"right","SHINEd_Knife_Camping.jpg","congruent","m",814.743875,"j","j","right","(862, 362)",37,1,823.147905609058,241.47643900638," 1008.11",331,4,1,1
"51",155,"right","SHINEd_Binder.jpg","congruent","m",554.177209,"j","j","right","(862, 362)",65,1,562.796161729897,-18.8753048727814,"  906.74",351,4,1,1
"51",156,"left","SHINEd_wheat_stock.jpg","congruent","n",565.764458,"f","f","left","(148, 362)",358,1,574.598332850736,-7.07313375194236," 2040.65",263,3,0,0
"51",157,"right","SHINEd_donkey.jpg","incongruent","n",658.099897,"f","f","left","(862, 362)",409,1,667.148693971575,85.4772273688967," 1344.58",57,2,1,NA
"51",158,"right","SHINEd_vanillabean copy.jpg","incongruent","n",775.192629,"f","f","left","(862, 362)",329,1,784.456348092414,202.784881489736," 1163.90",413,4,1,1
"51",159,"right","SHINEd_DoorKnob.jpg","congruent","m",537.480251,"j","j","right","(862, 362)",53,1,546.958892213253,-34.7125743894253,"  894.53",211,4,1,1
"51",160,"right","SHINEd_Megaphone.jpg","congruent","m",493.604933,"j","j","right","(862, 362)",101,1,503.298496334092,-78.3729702685862," 1022.61",376,3,0,0
"51",161,"left","SHINEd_Cheesegrater_Handheld.jpg","incongruent","m",600.719996,"j","j","right","(148, 362)",162,1,610.628481454931,28.9570148522528," 1444.35",34,4,1,1
"51",162,"left","SHINEd_durian.jpg","congruent","n",549.931458,"f","f","left","(148, 362)",374,1,560.05486557577,-21.6166010269082," 1045.98",220,3,0,0
"51",163,"right","SHINEd_Knee.jpg","incongruent","n",855.697269,"f","f","left","(862, 362)",309,1,866.035598696609,284.364132093931,"  775.23",185,4,1,1
"51",164,"left","SHINEd_Lips_Real.jpg","congruent","n",443.771669,"f","f","left","(148, 362)",390,1,454.324920817448,-127.34654578523,"  844.21",181,4,1,1
"51",165,"left","SHINEd_accordion.jpg","incongruent","m",553.911382,"j","j","right","(148, 362)",10,1,564.679555938288,-16.9919106643911,"  728.14",262,3,0,0
"51",166,"right","SHINEd_Corn.jpg","incongruent","n",491.601472,"f","f","left","(862, 362)",337,1,502.584568059127,-79.0868985435521,"  822.34",344,4,1,1
"51",167,"right","SHINEd_Kettle.jpg","congruent","m",477.990008,"f","j","right","(862, 362)",157,0,489.188026179966,-92.4834404227131," 1217.19",51,4,1,1
"51",168,"left","SHINEd_Calculator.jpg","incongruent","m",514.14938,"j","j","right","(148, 362)",94,1,525.562320300805,-56.1091463018741," 1149.47",59,4,1,1
"51",169,"right","SHINEd_BicycleChain.jpg","congruent","m",541.791658,"j","j","right","(862, 362)",17,1,553.419520421644,-28.251946181035," 1041.65",299,3,0,0
"51",170,"left","SHINEd_manatee.jpg","congruent","n",561.872547,"f","f","left","(148, 362)",342,1,573.715331542483,-7.95613506019593,"  951.50",81,3,0,0
"51",171,"left","SHINEd_Flamingo_Real.jpg","congruent","n",486.202304,"f","f","left","(148, 362)",406,1,498.260010663322,-83.4114559393569,"  757.89",393,3,0,0
"51",172,"left","SHINEd_LawnMower.jpg","incongruent","m",480.13245,"j","j","right","(148, 362)",46,1,492.405078784161,-89.2663878185179,"  838.78",422,4,1,1
"51",173,"left","SHINEd_Cherry.jpg","congruent","n",484.050962,"j","f","left","(148, 362)",258,0,496.538512905,-85.1329536976789," 1332.41",346,4,0,0
"51",174,"right","SHINEd_Cloud.jpg","incongruent","n",824.791288,"f","f","left","(862, 362)",385,1,837.493761025839,255.82229442316," 1343.49",112,4,0,0
"51",175,"right","SHINEd_DogHouse.jpg","congruent","m",474.746959,"j","j","right","(862, 362)",165,1,487.664354146678,-94.0071124560008," 1976.39",189,3,0,0
"51",176,"left","SHINEd_Dog_CockerSpaniel.jpg","congruent","n",607.129188,"f","f","left","(148, 362)",306,1,620.261505267517,38.5900386648382," 1232.37",29,2,0,0
"51",177,"left","SHINEd_Bathtub.jpg","incongruent","m",643.344606,"j","j","right","(148, 362)",58,1,656.691845388356,75.0203787856772," 1188.69",21,3,0,0
"51",178,"right","SHINEd_MusicSheet.jpg","congruent","m",605.602635,"j","j","right","(862, 362)",13,1,619.164796509195,37.4933299065162," 2575.55",409,1,1,NA
"51",179,"right","SHINEd_Snail.jpg","incongruent","n",593.00789,"f","f","left","(862, 362)",241,1,606.784973630034,25.1135070273552,"  790.83",201,3,0,0
"51",180,"left","SHINEd_Dog_Bulldog.jpg","congruent","n",509.287969,"f","f","left","(148, 362)",326,1,523.279974750873,-58.3914918518057," 1253.67",73,4,1,1
"51",181,"right","SHINEd_FileDivider.jpg","congruent","m",506.777062,"j","j","right","(862, 362)",69,1,520.983989871712,-60.6874767309667," 1084.77",385,4,0,0
"51",182,"left","SHINEd_Glove_Rubber.jpg","incongruent","m",349.586511,"f","j","right","(148, 362)",138,0,364.008360992551,-217.663105610128,"  826.20",408,4,0,0
"51",183,"left","SHINEd_Gecko.jpg","congruent","n",640.740758,"f","f","left","(148, 362)",370,1,655.37753011339,73.7060635107114," 2228.18",358,3,1,1
"51",184,"left","SHINEd_RollerBlade.jpg","incongruent","m",547.766861,"j","j","right","(148, 362)",178,1,562.618555234229,-19.0529113684497," 1085.83",373,1,0,0
"51",185,"left","SHINEd_Starfish.jpg","congruent","n",440.837815,"j","f","left","(148, 362)",378,0,455.904431355068,-125.767035247611,"  775.46",419,4,1,1
"51",186,"left","SHINEd_Car_Vintage.jpg","incongruent","m",515.991017,"j","j","right","(148, 362)",186,1,531.272555475907,-50.3989111267715,"  815.01",93,3,0,0
"51",187,"right","SHINEd_Gum_Pack.jpg","congruent","m",518.850883,"j","j","right","(862, 362)",77,1,534.347343596746,-47.3241230059326,"  855.07",314,4,1,1
"51",188,"left","SHINEd_Mirror_Makeup.jpg","incongruent","m",562.723692,"j","j","right","(148, 362)",122,1,578.435074717585,-3.23639188509347," 1284.38",254,3,1,1
"51",189,"left","SHINEd_Bugle.jpg","incongruent","m",517.763669,"j","j","right","(148, 362)",14,1,533.689973838424,-47.9814927642544," 3711.01",207,1,0,0
"51",190,"right","SHINEd_Bowl_Wooden.jpg","congruent","m",456.876909,"j","j","right","(862, 362)",141,1,473.018135959263,-108.653330643415," 1015.11",79,4,1,1
"51",191,"right","SHINEd_Clock_Radio.jpg","congruent","m",564.456054,"j","j","right","(862, 362)",93,1,580.812203080102,-0.859263522576421," 2159.69",127,2,0,0
"51",192,"left","SHINEd_Cane_Metal.jpg","incongruent","m",657.764092,"j","j","right","(148, 362)",190,1,674.335163200941,92.6636965982626," 1329.42",280,4,1,1
"51",193,"right","SHINEd_cottonplant.jpg","incongruent","n",620.891083,"f","f","left","(862, 362)",297,1,637.67707632178,56.0056097191016," 1032.38",151,3,0,0
"51",194,"right","SHINEd_BusStop.jpg","congruent","m",592.186278,"j","j","right","(862, 362)",145,1,609.187193442619,27.5157268399407," 1320.56",90,1,0,0
"51",195,"left","SHINEd_PencilSharpener.jpg","incongruent","m",525.043792,"j","j","right","(148, 362)",74,1,542.259629563458,-39.4118370392203,"  838.35",322,4,1,1
"51",196,"right","SHINEd_Crown.jpg","congruent","m",496.352528,"j","j","right","(862, 362)",193,1,513.783287684297,-67.8881789183813,"  752.34",306,4,1,1
"51",197,"right","SHINEd_Chair_High.jpg","congruent","m",563.237943,"j","j","right","(862, 362)",209,1,580.883624805136,-0.787841797542285," 1470.05",362,1,0,0
"51",198,"left","SHINEd_volcano copy.jpg","congruent","n",799.385657,"j","f","left","(148, 362)",234,0,817.246260925975,235.574794323297,"  784.46",38,4,1,1
"51",199,"right","SHINEd_Collards.jpg","incongruent","n",738.604342,"f","f","left","(862, 362)",445,1,756.679868046814,175.008401444136," 1247.33",182,3,0,0
"51",200,"left","SHINEd_honeydew.jpg","congruent","n",543.63782,"f","f","left","(148, 362)",330,1,561.928268167653,-19.7431984350251," 1384.55",311,3,0,0
"51",201,"right","SHINEd_Cabinet_Display.jpg","congruent","m",554.837157,"j","j","right","(862, 362)",205,1,573.342527288493,-8.3289393141861," 1015.95",166,4,1,1
"51",202,"right","SHINEd_Broccoli.jpg","incongruent","n",565.790161,"f","f","left","(862, 362)",253,1,584.510453409331,2.83898680665289," 2502.96",149,1,0,0
"51",203,"right","SHINEd_Mitt_Oven.jpg","congruent","m",553.747567,"j","j","right","(862, 362)",137,1,572.68278153017,-8.98868507250809," 1830.87",49,3,1,1
"51",204,"left","SHINEd_peacockfeather.jpg","congruent","n",596.580176,"f","f","left","(148, 362)",382,1,615.73031265101,34.058846048331,"  728.40",238,4,1,1
"51",205,"left","SHINEd_Jacket_Suit.jpg","incongruent","m",543.115138,"j","j","right","(148, 362)",2,1,562.480196771849,-19.19126983083,"  960.69",26,4,1,1
"51",206,"right","SHINEd_Pineapple.jpg","incongruent","n",546.56666,"f","f","left","(862, 362)",353,1,566.146640892688,-15.5248257099911,"  756.10",292,4,1,1
"51",207,"left","SHINEd_ladybug.jpg","congruent","n",510.129776,"j","f","left","(148, 362)",238,0,529.924679013527,-51.746787589152,"  741.23",154,4,1,1
"51",208,"left","SHINEd_Beater_Electric.jpg","incongruent","m",690.234587,"j","j","right","(148, 362)",42,1,710.244412134366,128.572945531687,"  711.21",455,3,0,0
"51",209,"left","SHINEd_LightHouse.jpg","incongruent","m",445.074053,"j","j","right","(148, 362)",146,1,465.298800255205,-116.372666347474,"  804.90",395,4,1,1
"51",210,"left","SHINEd_Currants.jpg","congruent","n",568.30762,"f","f","left","(148, 362)",254,1,588.747289376044,7.07582277336513," 1813.08",71,3,1,1
"51",211,"left","SHINEd_fox.jpg","congruent","n",444.813773,"f","f","left","(148, 362)",334,1,465.468364496883,-116.203102105796,"  840.59",61,4,1,1
"51",212,"right","SHINEd_Branch.jpg","incongruent","n",527.865933,"f","f","left","(862, 362)",333,1,548.735446617722,-32.9360199849568,"  895.82",338,4,1,1
"51",213,"right","SHINEd_Fish_Rockbass.jpg","incongruent","n",693.502921,"f","f","left","(862, 362)",341,1,714.587356738561,132.915890135882," 1319.75",13,4,1,1
"51",214,"left","SHINEd_Nuts_Walnut.jpg","congruent","n",592.230859,"f","f","left","(148, 362)",446,1,613.5302168594,31.8587502567212," 2415.23",143,1,0,0
"51",215,"right","SHINEd_Leg.jpg","incongruent","n",645.107175,"f","f","left","(862, 362)",405,1,666.621454980239,84.9499883775602,"  772.67",133,4,1,1
"51",216,"right","SHINEd_rhino horn.jpg","incongruent","n",646.861154,"f","f","left","(862, 362)",249,1,668.590356101078,86.9188894983993,"  780.68",324,4,1,1
"51",217,"left","SHINEd_BearPolar.jpg","congruent","n",507.294992,"f","f","left","(148, 362)",386,1,529.239116221917,-52.4323503807617," 1112.68",27,4,1,1
"51",218,"left","SHINEd_Hourglass.jpg","incongruent","m",558.864779,"j","j","right","(148, 362)",110,1,581.023825342756,-0.647641259922697," 1118.85",72,3,1,1
"51",219,"right","SHINEd_Mango.jpg","incongruent","n",586.038936,"f","f","left","(862, 362)",277,1,608.412904463595,26.7414378609164," 2575.85",3,3,0,0
"51",220,"left","SHINEd_Cranberry.jpg","congruent","n",549.542424,"f","f","left","(148, 362)",398,1,572.131314584434,-9.54015201824465,"  973.49",443,4,1,1
"51",221,"left","SHINEd_spinach.jpg","congruent","n",584.502209,"f","f","left","(148, 362)",266,1,607.306021705273,25.6345551025944,"  992.87",240,4,1,1
"51",222,"right","SHINEd_ShoppingCart.jpg","congruent","m",500.059658,"j","j","right","(862, 362)",109,1,523.078392826112,-58.5930737765666," 1016.09",390,3,1,1
"51",223,"right","SHINEd_Jetski.jpg","congruent","m",609.158941,"j","j","right","(862, 362)",181,1,632.392597946951,50.7211313442725,"  672.59",179,3,0,0
"51",224,"right","SHINEd_pumpkinseeds-.jpg","incongruent","n",NA,"miss","f","left","(862, 362)",237,0,NA,NA,"  772.35",92,4,1,1
"51",225,"left","SHINEd_Scooter.jpg","incongruent","m",567.255711,"j","j","right","(148, 362)",174,1,590.919212188629,9.24774558595052,"  965.74",108,4,0,0
"51",226,"right","SHINEd_Cannon.jpg","congruent","m",603.13191,"j","j","right","(862, 362)",61,1,627.010333309468,45.3388667067895,"  966.75",268,3,1,1
"51",227,"left","SHINEd_Ball_Bowling.jpg","incongruent","m",518.401255,"f","j","right","(148, 362)",134,0,542.494600430307,-39.1768661723715," 1327.59",17,4,1,1
"51",228,"left","SHINEd_USBKey.jpg","incongruent","m",745.024591,"j","j","right","(148, 362)",90,1,769.332858551146,187.661391948468," 1338.16",355,4,1,1
