"participant","trial_index","screenposition","stimulus","trialtype","classifyenc","rt","response","responsecorrect","responsecorrect_side","screenlocation","stimnum","acc","rtResidual","rtResidualC","rt_rec","trialno_rec","ratingConfidence","acc_rec","memoryHits.hc"
"52",1,"left","SHINEd_hyena.jpg","incongruent","n",942.764923,"j","j","right","(148, 362)",422,1,936.621467108603,304.01693181901," 1383.89",202,3,0,0
"52",2,"left","SHINEd_Clip_Paper.jpg","congruent","m",579.59884,"f","f","left","(148, 362)",66,1,573.508748771443,-59.0957865181496," 1358.19",433,2,1,NA
"52",3,"right","SHINEd_dinosaur fossil.jpg","congruent","n",559.801228,"f","j","right","(862, 362)",377,0,553.764501434284,-78.8400338553086," 1145.33",189,1,1,NA
"52",4,"left","SHINEd_Goat.jpg","incongruent","n",747.948665,"j","j","right","(148, 362)",322,1,741.965303097125,109.360767807532," 1014.49",389,3,0,0
"52",5,"left","SHINEd_Box_Notepaper.jpg","congruent","m",774.974515,"f","f","left","(148, 362)",70,1,769.044517759966,136.439982470373," 1929.26",39,4,1,1
"52",6,"right","SHINEd_Kettle.jpg","incongruent","m",538.713544,"f","f","left","(862, 362)",157,1,532.836911422807,-99.7676238667859," 1414.42",197,4,1,1
"52",7,"right","SHINEd_artichoke.jpg","congruent","n",NA,"miss","j","right","(862, 362)",453,0,NA,NA," 1021.32",331,2,0,0
"52",8,"right","SHINEd_MusicSheet.jpg","incongruent","m",912.806426,"f","f","left","(862, 362)",13,1,907.036522748489,274.431987458896," 1247.76",146,4,1,1
"52",9,"left","SHINEd_Bugle.jpg","congruent","m",565.509641,"f","f","left","(148, 362)",14,1,559.79310241133,-72.8114328782631," 1995.57",222,4,1,1
"52",10,"right","SHINEd_Escalator.jpg","incongruent","m",522.432847,"j","f","left","(862, 362)",177,0,516.769673074171,-115.834862215422,"  996.70",83,4,1,1
"52",11,"right","SHINEd_Lychee.jpg","congruent","n",668.883818,"j","j","right","(862, 362)",321,1,663.274008737012,30.6694734474188," 1271.22",326,4,1,1
"52",12,"left","SHINEd_honeydew.jpg","incongruent","n",770.167575,"j","j","right","(148, 362)",330,1,764.611130399853,132.00659511026," 1464.34",104,4,1,1
"52",13,"right","SHINEd_dragonfruit.jpg","congruent","n",861.653179,"j","j","right","(862, 362)",437,1,856.150099062693,223.545563773101," 1151.37",164,4,1,1
"52",14,"left","SHINEd_Radish.jpg","incongruent","n",594.408585,"j","j","right","(148, 362)",242,1,588.958869725534,-43.6456655640584," 1365.08",177,4,1,1
"52",15,"left","SHINEd_PencilSharpener.jpg","congruent","m",644.582457,"f","f","left","(148, 362)",74,1,639.186106388375,6.58157109878246," 2254.91",367,3,1,1
"52",16,"left","SHINEd_Fruit_Orange.jpg","incongruent","n",679.43649,"j","j","right","(148, 362)",302,1,674.093504051216,41.4889687616235," 1695.76",80,4,1,1
"52",17,"right","SHINEd_soil.jpg","congruent","n",523.025954,"f","j","right","(862, 362)",289,0,517.736332714057,-114.868202575536," 1117.07",91,4,1,1
"52",18,"left","SHINEd_Bird_Pelican.jpg","incongruent","n",NA,"miss","j","right","(148, 362)",402,0,NA,NA," 1289.02",448,4,1,1
"52",19,"right","SHINEd_Bottle_Beer.jpg","incongruent","m",579.021678,"f","f","left","(862, 362)",213,1,573.838786039739,-58.7657492498538," 1045.65",215,3,0,0
"52",20,"right","SHINEd_Cloud.jpg","congruent","n",711.691135,"f","j","right","(862, 362)",385,0,706.56160770258,73.9570724129872," 1544.36",65,4,1,1
"52",21,"left","SHINEd_antlers.jpg","incongruent","n",529.969459,"j","j","right","(148, 362)",418,1,524.893296365421,-107.711238924172," 1052.20",279,4,1,1
"52",22,"left","SHINEd_Starfish.jpg","incongruent","n",NA,"miss","j","right","(148, 362)",378,0,NA,NA," 1169.45",142,4,0,0
"52",23,"left","SHINEd_Ball_Bowling.jpg","congruent","m",731.497642,"j","f","left","(148, 362)",134,0,726.528208691103,93.9236734015099," 1858.37",94,4,1,1
"52",24,"right","SHINEd_Knife_Camping.jpg","incongruent","m",512.457003,"f","f","left","(862, 362)",37,1,507.540934353943,-125.063600935649,"  663.22",266,3,0,0
"52",25,"left","SHINEd_CasketOpen.jpg","congruent","m",669.609082,"f","f","left","(148, 362)",218,1,664.746378016784,32.1418427271917," 3683.70",455,3,1,1
"52",26,"right","SHINEd_Jetski.jpg","incongruent","m",665.37369,"f","f","left","(862, 362)",181,1,660.564350679625,27.9598153900327," 1015.41",292,4,1,1
"52",27,"right","SHINEd_Tree_Fir.jpg","congruent","n",639.556377,"j","j","right","(862, 362)",229,1,634.800402342466,2.19586705287363," 1144.89",121,4,1,1
"52",28,"right","SHINEd_Elephant.jpg","congruent","n",532.302428,"j","j","right","(862, 362)",349,1,527.599818005307,-105.004717284285," 1193.48",155,4,1,1
"52",29,"right","SHINEd_Gum_Pack.jpg","incongruent","m",662.337714,"f","f","left","(862, 362)",77,1,657.688468668148,25.0839333785555," 1368.59",409,4,1,1
"52",30,"right","SHINEd_Leek.jpg","congruent","n",523.788434,"f","j","right","(862, 362)",357,0,519.192553330989,-113.411981958604," 1800.98",297,2,1,NA
"52",31,"right","SHINEd_BasketballHoop.jpg","incongruent","m",623.547645,"f","f","left","(862, 362)",129,1,619.00512899383,-13.5994062957627," 1886.38",221,1,1,NA
"52",32,"left","SHINEd_volcano copy.jpg","incongruent","n",836.156052,"j","j","right","(148, 362)",234,1,831.666900656671,199.062365367078," 2165.62",25,4,1,1
"52",33,"right","SHINEd_Pineapple.jpg","congruent","n",538.084673,"f","j","right","(862, 362)",353,0,533.648886319512,-98.9556489700809,"  659.50",244,4,1,1
"52",34,"right","SHINEd_Gloves_WhiteKnit.jpg","incongruent","m",669.240593,"f","f","left","(862, 362)",197,1,664.858170982353,32.2536356927601,"  946.05",138,4,1,1
"52",35,"right","SHINEd_orchid.jpg","congruent","n",883.312834,"f","j","right","(862, 362)",261,0,878.983776645194,246.379241355601," 1276.78",358,4,1,1
"52",36,"left","SHINEd_SkullDeer.jpg","incongruent","n",511.333997,"j","j","right","(148, 362)",278,1,507.058304308035,-125.546230981558," 2541.33",3,3,1,1
"52",37,"right","SHINEd_pickle.jpg","congruent","n",545.769444,"j","j","right","(862, 362)",373,1,541.547115970876,-91.0574193187171," 1539.34",369,3,1,1
"52",38,"right","SHINEd_Bowl_Wooden.jpg","incongruent","m",758.178105,"f","f","left","(862, 362)",141,1,754.009141633717,121.404606344124," 1135.11",82,4,1,1
"52",39,"right","SHINEd_Collards.jpg","congruent","n",772.392318,"j","j","right","(862, 362)",445,1,768.276719296558,135.672184006965,"  809.50",76,4,1,1
"52",40,"right","SHINEd_Carabiner_Orange.jpg","incongruent","m",735.171646,"f","f","left","(862, 362)",29,1,731.109411959398,98.5048766698057," 1655.04",89,4,1,1
"52",41,"left","SHINEd_accordion.jpg","congruent","m",772.076435,"f","f","left","(148, 362)",10,1,768.067565622239,135.463030332647,"  917.21",293,2,0,0
"52",42,"right","SHINEd_Cabinet_Display.jpg","incongruent","m",522.682501,"f","f","left","(862, 362)",205,1,518.72699628508,-113.877539004512,"  981.26",272,4,1,1
"52",43,"right","SHINEd_mizuna.jpg","congruent","n",719.284507,"f","j","right","(862, 362)",429,0,715.382366947921,82.7778316583284,"  926.94",345,3,1,1
"52",44,"left","SHINEd_RamAnimal.jpg","incongruent","n",658.6676,"j","j","right","(148, 362)",454,1,654.818824610762,22.2142893211694," 1233.70",96,4,1,1
"52",45,"left","SHINEd_BearPolar.jpg","incongruent","n",702.37225,"j","j","right","(148, 362)",386,1,698.576839273603,65.9723039840104," 1844.68",285,4,1,1
"52",46,"right","SHINEd_Oyster.jpg","congruent","n",NA,"miss","j","right","(862, 362)",433,0,NA,NA," 1100.97",269,4,1,1
"52",47,"right","SHINEd_fountain.jpg","incongruent","m",533.711823,"f","f","left","(862, 362)",169,1,530.023141599285,-102.581393690308," 1741.50",174,4,0,0
"52",48,"right","SHINEd_Bells_Christmas.jpg","incongruent","m",880.843876,"f","f","left","(862, 362)",225,1,877.208559262126,244.604023972533," 1194.92",73,4,1,1
"52",49,"left","SHINEd_Swing_Child.jpg","congruent","m",621.284355,"f","f","left","(148, 362)",166,1,617.702402924967,-14.9021323646259," 1575.73",28,2,1,NA
"52",50,"right","SHINEd_BicycleChain.jpg","incongruent","m",824.477111,"f","f","left","(862, 362)",17,1,820.948523587808,188.343988298215," 1259.79",203,3,0,0
"52",51,"right","SHINEd_koala.jpg","congruent","n",709.758761,"j","j","right","(862, 362)",365,1,706.283538250649,73.679002961056,"  952.41",359,4,1,1
"52",52,"left","SHINEd_Kite_Rainbow.jpg","congruent","m",737.286299,"f","f","left","(148, 362)",78,1,733.864440913489,101.259905623897," 1725.05",69,4,1,1
"52",53,"left","SHINEd_Cherry.jpg","incongruent","n",644.706643,"j","j","right","(148, 362)",258,1,641.33814957633,8.73361428673775,"  924.66",235,3,0,0
"52",54,"right","SHINEd_Corn.jpg","congruent","n",455.628159,"j","j","right","(862, 362)",337,1,452.313030239171,-180.291505050421," 1598.24",205,4,1,1
"52",55,"left","SHINEd_pomegrant.jpg","incongruent","n",NA,"miss","j","right","(148, 362)",354,0,NA,NA," 1518.28",303,4,1,1
"52",56,"right","SHINEd_Chair_High.jpg","incongruent","m",479.228898,"f","f","left","(862, 362)",209,1,476.020498564853,-156.584036724739,"  878.89",344,2,1,NA
"52",57,"left","SHINEd_Lipstick.jpg","congruent","m",450.474486,"f","f","left","(148, 362)",198,1,447.319451227694,-185.285084061899," 1303.11",100,4,1,1
"52",58,"right","SHINEd_Crown.jpg","incongruent","m",687.528463,"f","f","left","(862, 362)",193,1,684.426792890535,51.8222576009424," 1094.30",143,4,1,1
"52",59,"right","SHINEd_vanillabean copy.jpg","congruent","n",572.27546,"j","j","right","(862, 362)",329,1,569.227154553376,-63.3773807362167,"  897.05",206,4,1,1
"52",60,"left","SHINEd_Dog_CockerSpaniel.jpg","incongruent","n",470.822207,"f","j","right","(148, 362)",306,0,467.827266216217,-164.777269073376," 2406.97",34,1,0,0
"52",61,"left","SHINEd_rabbitt.jpg","incongruent","n",428.035532,"j","j","right","(148, 362)",350,1,425.093955879058,-207.510579410535," 1021.38",51,4,1,1
"52",62,"left","SHINEd_PictureFrame.jpg","congruent","m",535.432004,"f","f","left","(148, 362)",222,1,532.543792541899,-100.060742747694," 1247.10",335,4,0,0
"52",63,"right","SHINEd_RecordPlayer.jpg","incongruent","m",673.883986,"f","f","left","(862, 362)",149,1,671.04913920474,38.4446039151471," 2299.43",449,4,1,1
"52",64,"right","SHINEd_Dog_ChowChow.jpg","congruent","n",549.198751,"f","j","right","(862, 362)",369,0,546.417268867581,-86.187266422012," 1518.73",117,4,0,0
"52",65,"right","SHINEd_Vase_Decorative copy.jpg","incongruent","m",562.592274,"j","f","left","(862, 362)",221,0,559.864156530422,-72.7403787591711,"  923.76",442,3,0,0
"52",66,"right","SHINEd_platypus.jpg","congruent","n",727.017563,"f","j","right","(862, 362)",293,0,724.342810193262,91.7382749036698,"  838.17",342,3,1,1
"52",67,"left","SHINEd_Lips_Real.jpg","incongruent","n",947.11952,"j","j","right","(148, 362)",390,1,944.498131856103,311.893596566511," 1447.25",404,4,1,1
"52",68,"right","SHINEd_Wheel_Steering.jpg","incongruent","m",566.836695,"f","f","left","(862, 362)",185,1,564.268671518944,-68.3358637706483," 1430.90",126,4,1,1
"52",69,"left","SHINEd_Jacket_Suit.jpg","congruent","m",692.232395,"f","f","left","(148, 362)",2,1,689.717736181785,57.1132008921926," 2385.18",136,4,1,1
"52",70,"left","SHINEd_greenapple.jpg","incongruent","n",471.109748,"j","j","right","(148, 362)",410,1,468.648453844626,-163.956081444966," 1612.64",270,3,0,0
"52",71,"right","SHINEd_catcus.jpg","congruent","n",474.503565,"j","j","right","(862, 362)",313,1,472.095635507467,-160.508899782126,"  854.62",227,3,1,1
"52",72,"left","SHINEd_raccoon.jpg","incongruent","n",542.456666,"f","j","right","(148, 362)",262,0,540.102101170308,-92.5024341192845," 1144.14",118,4,1,1
"52",73,"left","SHINEd_Bathtub.jpg","congruent","m",611.337441,"f","f","left","(148, 362)",58,1,609.036240833149,-23.5682944564436," 1239.45",223,4,1,1
"52",74,"right","SHINEd_Mattress.jpg","incongruent","m",727.019717,"f","f","left","(862, 362)",49,1,724.77188149599,92.1673462063973," 1568.52",374,4,1,1
"52",75,"left","SHINEd_RollerBlade.jpg","congruent","m",460.043778,"f","f","left","(148, 362)",178,1,457.849307158831,-174.755228130762,"  917.50",343,3,0,0
"52",76,"left","SHINEd_Door_Green.jpg","congruent","m",703.330552,"j","f","left","(148, 362)",106,0,701.189445821672,68.5849105320791," 1303.05",159,4,1,1
"52",77,"right","SHINEd_BowlingPin.jpg","incongruent","m",717.927007,"f","f","left","(862, 362)",25,1,715.839265484513,83.23473019492," 3644.32",281,4,1,1
"52",78,"left","SHINEd_Flashlight.jpg","congruent","m",488.455289,"f","f","left","(148, 362)",98,1,486.420912147354,-146.183623142239," 1406.71",72,1,0,0
"52",79,"left","SHINEd_Cantaloupe.jpg","incongruent","n",476.053162,"f","j","right","(148, 362)",338,0,474.072149810195,-158.532385479398,"  815.86",336,4,1,1
"52",80,"left","SHINEd_Fryingpan.jpg","congruent","m",566.640874,"f","f","left","(148, 362)",158,1,564.713226473036,-67.8913088165571," 1931.87",254,4,1,1
"52",81,"left","SHINEd_durian.jpg","incongruent","n",474.156308,"j","j","right","(148, 362)",374,1,472.282025135876,-160.322510153716," 1045.48",391,3,1,1
"52",82,"left","SHINEd_MobilityScooter.jpg","congruent","m",575.068801,"f","f","left","(148, 362)",182,1,573.247882798717,-59.3566524908753," 1158.69",371,3,1,1
"52",83,"right","SHINEd_FileDivider.jpg","incongruent","m",660.16737,"f","f","left","(862, 362)",69,1,658.399816461558,25.7952811719656," 1494.94",128,4,1,1
"52",84,"left","SHINEd_Nail.jpg","congruent","m",655.415595,"f","f","left","(148, 362)",38,1,653.701406124399,21.0968708348066,"  742.56",408,3,1,1
"52",85,"left","SHINEd_spinach.jpg","incongruent","n",717.8233,"j","j","right","(148, 362)",266,1,716.16247578724,83.5579404976475," 1069.57",311,2,1,NA
"52",86,"right","SHINEd_Branch.jpg","congruent","n",545.32105,"j","j","right","(862, 362)",333,1,543.713590450081,-88.8909448395116,"  905.13",75,4,1,1
"52",87,"left","SHINEd_Weights_Dumbells.jpg","congruent","m",563.929011,"f","f","left","(148, 362)",22,1,562.374916112922,-70.2296191766707,"  941.45",257,4,0,0
"52",88,"right","SHINEd_Bleachers.jpg","incongruent","m",799.920519,"f","f","left","(862, 362)",133,1,798.419788775763,165.81525348617," 1487.27",61,3,0,0
"52",89,"right","SHINEd_starfruit.jpg","congruent","n",795.633421,"j","j","right","(862, 362)",317,1,794.186055438604,161.581520149011," 2850.63",12,2,1,NA
"52",90,"left","SHINEd_Flamingo_Real.jpg","incongruent","n",582.102,"f","j","right","(148, 362)",406,0,580.707999101445,-51.8965361881479,"  886.43",315,2,1,NA
"52",91,"right","SHINEd_Clock_Radio.jpg","incongruent","m",593.068267,"f","f","left","(862, 362)",93,1,591.727630764286,-40.876904525307," 1366.46",375,4,1,1
"52",92,"left","SHINEd_Slippers.jpg","congruent","m",639.807933,"j","f","left","(148, 362)",154,0,638.520661427127,5.91612613753403,"  965.40",301,4,0,0
"52",93,"left","SHINEd_Currants.jpg","incongruent","n",554.202813,"j","j","right","(148, 362)",254,1,552.968906089968,-79.6356291996251,"  668.45",276,4,1,1
"52",94,"right","SHINEd_brusselsprouts.jpg","congruent","n",704.785137,"j","j","right","(862, 362)",265,1,703.604594752808,71.0000594632158," 1617.88",99,1,0,0
"52",95,"left","SHINEd_Dog_Bulldog.jpg","incongruent","n",426.459942,"f","j","right","(148, 362)",326,0,425.33276441565,-207.271770873943," 1620.28",137,4,1,1
"52",96,"right","SHINEd_Magnifying_Glass.jpg","incongruent","m",487.579701,"f","f","left","(862, 362)",105,1,486.50588807849,-146.098647211102," 1045.72",232,4,1,1
"52",97,"left","SHINEd_Drill.jpg","congruent","m",545.83723,"f","f","left","(148, 362)",30,1,544.816781741331,-87.7877535482614,"  891.49",267,3,1,1
"52",98,"left","SHINEd_wheat_stock.jpg","incongruent","n",606.83861,"j","j","right","(148, 362)",358,1,605.871526404172,-26.7330088854204,"  789.20",332,3,1,1
"52",99,"right","SHINEd_Turtle.jpg","congruent","n",586.997512,"j","j","right","(862, 362)",305,1,586.083793067013,-46.5207422225795," 1821.91",22,4,1,1
"52",100,"right","SHINEd_HairDryer.jpg","incongruent","m",629.482768,"f","f","left","(862, 362)",45,1,628.622413729854,-3.98212155973862," 1799.63",30,4,1,1
"52",101,"left","SHINEd_Pumpkin.jpg","incongruent","n",626.569247,"j","j","right","(148, 362)",294,1,625.762257392695,-6.84227789689764,"  772.78",255,3,0,0
"52",102,"right","SHINEd_okapi.jpg","congruent","n",605.622566,"f","j","right","(862, 362)",425,0,604.868941055536,-27.7355942340567," 6517.73",1,2,1,NA
"52",103,"left","SHINEd_Grape.jpg","incongruent","n",553.133429,"j","j","right","(148, 362)",274,1,552.433168718377,-80.1713665712158,"  909.62",420,4,0,0
"52",104,"left","SHINEd_Car_Vintage.jpg","congruent","m",639.869317,"f","f","left","(148, 362)",186,1,639.222421381218,6.61788609162515," 1679.73",77,2,0,0
"52",105,"right","SHINEd_Leg.jpg","congruent","n",754.924857,"j","j","right","(862, 362)",405,1,754.331326044059,121.726790754466,"  955.95",417,4,0,0
"52",106,"right","SHINEd_Mitt_Oven.jpg","incongruent","m",799.214836,"j","f","left","(862, 362)",137,0,798.6746697069,166.070134417307," 1372.40",229,3,0,0
"52",107,"right","SHINEd_Paw.jpg","congruent","n",810.864102,"f","j","right","(862, 362)",301,0,810.377300369741,177.772765080148," 1099.70",434,3,1,1
"52",108,"right","SHINEd_Saw.jpg","incongruent","m",615.80924,"j","f","left","(862, 362)",33,0,615.375803032582,-17.2287322570111," 1060.26",382,2,1,NA
"52",109,"right","SHINEd_Snail.jpg","congruent","n",738.219385,"j","j","right","(862, 362)",241,1,737.839312695422,105.23477740583,"  604.43",243,4,1,1
"52",110,"right","SHINEd_Makeup_Compact.jpg","incongruent","m",828.97816,"f","f","left","(862, 362)",121,1,828.651452358263,196.046917068671," 1334.54",307,4,1,1
"52",111,"right","SHINEd_catfish.jpg","congruent","n",770.634454,"j","j","right","(862, 362)",361,1,770.361111021104,137.756575731512," 1260.11",372,3,0,0
"52",112,"right","SHINEd_Gametable_AirHockey.jpg","incongruent","m",487.268076,"f","f","left","(862, 362)",85,1,487.048097683945,-145.556437605647," 1106.32",124,3,0,0
"52",113,"right","SHINEd_Mango.jpg","congruent","n",658.946406,"j","j","right","(862, 362)",277,1,658.779792346786,26.1752570571935," 1427.50",251,3,1,1
"52",114,"right","SHINEd_WatermelonSlice.jpg","congruent","n",502.14356,"j","j","right","(862, 362)",325,1,502.030311009627,-130.574224279966," 1237.55",68,4,0,0
"52",115,"left","SHINEd_grasshopper.jpg","incongruent","n",NA,"miss","j","right","(148, 362)",286,0,NA,NA," 1184.52",97,4,0,0
"52",116,"left","SHINEd_Ball_Basketball.jpg","congruent","m",487.234478,"j","f","left","(148, 362)",130,0,487.227958335309,-145.376576954284," 2287.12",4,2,1,NA
"52",117,"right","SHINEd_ChainRusty.jpg","incongruent","m",506.031164,"f","f","left","(862, 362)",21,1,506.07800899815,-126.526526291443," 1024.19",87,4,1,1
"52",118,"left","SHINEd_Scooter.jpg","congruent","m",678.07153,"f","f","left","(148, 362)",174,1,678.171739660991,45.5672043713982," 1507.51",196,4,1,1
"52",119,"left","SHINEd_lotusroot.jpg","incongruent","n",842.002957,"j","j","right","(148, 362)",298,1,842.156531323832,209.551996034239," 1572.75",268,4,1,1
"52",120,"right","SHINEd_Lilypad.jpg","congruent","n",334.336189,"j","j","right","(862, 362)",413,1,334.543127986673,-298.06140730292,"  833.00",426,4,0,0
"52",121,"right","SHINEd_Drum_Bongos.jpg","incongruent","m",570.992823,"f","f","left","(862, 362)",9,1,571.253126649514,-61.3514086400791," 1014.16",403,2,1,NA
"52",122,"left","SHINEd_ChalkboardEraser.jpg","congruent","m",549.848969,"f","f","left","(148, 362)",62,1,550.162637312355,-82.4418979772381," 1325.72",284,4,1,1
"52",123,"left","SHINEd_Butterfly.jpg","incongruent","n",562.890334,"j","j","right","(148, 362)",318,1,563.257366975196,-69.3471683143972,"  852.99",283,2,1,NA
"52",124,"right","SHINEd_DentalFloss.jpg","incongruent","m",855.329915,"j","f","left","(862, 362)",117,0,855.750312638036,223.145777348444,"12268.42",432,3,1,1
"52",125,"left","SHINEd_Bench_Black.jpg","congruent","m",395.634612,"f","f","left","(148, 362)",206,1,396.108374300877,-236.496160988715," 2494.17",59,4,1,1
"52",126,"left","SHINEd_mushroom_other.jpg","incongruent","n",446.803337,"f","j","right","(148, 362)",426,0,447.330463963718,-185.274071325874," 1653.44",444,4,1,1
"52",127,"left","SHINEd_Briefcase_Leather.jpg","congruent","m",946.74129,"f","f","left","(148, 362)",210,1,947.321781626559,314.717246336966," 1085.36",377,3,1,1
"52",128,"right","SHINEd_Dice.jpg","incongruent","m",551.136302,"j","f","left","(862, 362)",89,0,551.7701582894,-80.8343770001926," 1151.14",366,3,1,1
"52",129,"left","SHINEd_LightHouse.jpg","congruent","m",738.6878,"j","f","left","(148, 362)",146,0,739.375020952241,106.770485662648," 1648.52",23,3,0,0
"52",130,"left","SHINEd_fox.jpg","incongruent","n",516.038063,"j","j","right","(148, 362)",334,1,516.778648615082,-115.825886674511,"  972.73",304,4,1,1
"52",131,"left","SHINEd_DustPan.jpg","congruent","m",656.537471,"f","f","left","(148, 362)",54,1,657.331421277923,24.7268859883302,"  918.38",386,3,0,0
"52",132,"right","SHINEd_whale.jpg","congruent","n",435.908032,"j","j","right","(862, 362)",421,1,436.755346940764,-195.849188348829," 2024.99",105,1,0,0
"52",133,"right","SHINEd_DoorKnob.jpg","incongruent","m",751.347342,"f","f","left","(862, 362)",53,1,752.248021603605,119.643486314012,"  956.55",406,4,1,1
"52",134,"right","SHINEd_Quartz.jpg","congruent","n",892.742445,"j","j","right","(862, 362)",401,1,893.696489266446,261.091953976853," 1096.72",413,4,1,1
"52",135,"right","SHINEd_Bottle_Blue.jpg","incongruent","m",489.234055,"f","f","left","(862, 362)",217,1,490.241463929287,-142.363071360306,"  636.66",246,4,1,1
"52",136,"left","SHINEd_Seashell_BayScallop.jpg","incongruent","n",566.10854,"j","j","right","(148, 362)",270,1,567.169313592128,-65.4352216974652,"  954.37",323,2,0,0
"52",137,"left","SHINEd_Boot_Rain.jpg","congruent","m",659.585669,"f","f","left","(148, 362)",150,1,660.699807254969,28.0952719653758," 1483.41",62,3,0,0
"52",138,"left","SHINEd_couch.jpg","congruent","m",632.902478,"f","f","left","(148, 362)",202,1,634.069980917809,1.46544562821667,"  988.80",211,4,1,1
"52",139,"right","SHINEd_Camera_Video.jpg","incongruent","m",754.582219,"f","f","left","(862, 362)",97,1,755.80308658065,123.198551291058," 1750.51",368,3,1,1
"52",140,"right","SHINEd_white_strawberries.jpg","congruent","n",518.153615,"j","j","right","(862, 362)",417,1,519.427847243491,-113.176688046102," 1535.29",86,4,1,1
"52",141,"left","SHINEd_manatee.jpg","incongruent","n",553.893724,"j","j","right","(148, 362)",342,1,555.221320906332,-77.3832143832605," 1336.75",42,3,1,1
"52",142,"right","SHINEd_goldenberry.jpg","congruent","n",485.824207,"j","j","right","(862, 362)",397,1,487.205168569173,-145.39936672042," 4133.85",15,3,1,1
"52",143,"left","SHINEd_Tomato.jpg","incongruent","n",568.666833,"j","j","right","(148, 362)",450,1,570.101159232014,-62.5033760575787,"  937.01",54,4,1,1
"52",144,"left","SHINEd_Beater_Electric.jpg","congruent","m",542.487442,"f","f","left","(148, 362)",42,1,543.975132894855,-88.6294023947378," 1219.89",376,2,1,NA
"52",145,"left","SHINEd_purple_yam.jpg","incongruent","n",705.833445,"j","j","right","(148, 362)",442,1,707.374500557696,74.7699652681032," 1481.41",144,4,1,1
"52",146,"right","SHINEd_Desk_School.jpg","incongruent","m",477.608935,"f","f","left","(862, 362)",201,1,479.203355220537,-153.401180069056," 1251.66",322,4,1,1
"52",147,"right","SHINEd_Gorilla.jpg","congruent","n",592.533424,"j","j","right","(862, 362)",285,1,594.181208883378,-38.423326406215," 1165.82",53,4,1,1
"52",148,"right","SHINEd_Megaphone.jpg","incongruent","m",582.191599,"f","f","left","(862, 362)",101,1,583.892748546219,-48.711786743374," 5326.53",6,3,1,1
"52",149,"left","SHINEd_airpump.jpg","congruent","m",626.436633,"f","f","left","(148, 362)",114,1,628.19114720906,-4.41338808053306," 1666.42",230,4,0,0
"52",150,"right","SHINEd_worm.jpg","congruent","n",759.287058,"f","j","right","(862, 362)",389,0,761.094936871901,128.490401582308," 1228.02",156,4,1,1
"52",151,"right","SHINEd_Toad.jpg","congruent","n",714.96156,"j","j","right","(862, 362)",441,1,716.822803534741,84.2182682451487," 1197.82",357,4,1,1
"52",152,"left","SHINEd_scallion.jpg","incongruent","n",575.406112,"f","j","right","(148, 362)",314,0,577.320720197582,-55.2838150920103," 1580.36",419,3,1,1
"52",153,"right","SHINEd_Pacifier.jpg","incongruent","m",645.549837,"f","f","left","(862, 362)",81,1,647.517809860423,14.9132745708306," 1464.32",119,4,1,1
"52",154,"right","SHINEd_Broccoli.jpg","congruent","n",719.913467,"j","j","right","(862, 362)",253,1,721.934804523264,89.3302692336715," 1030.58",427,4,1,1
"52",155,"right","SHINEd_donkey.jpg","congruent","n",436.158828,"j","j","right","(862, 362)",409,1,438.233530186105,-194.371005103488," 1261.28",338,4,1,1
"52",156,"left","SHINEd_Slide.jpg","congruent","m",567.025942,"f","f","left","(148, 362)",82,1,569.154008848946,-63.4505264406466,"  896.89",318,4,1,1
"52",157,"right","SHINEd_FlipFlop_PairBlue.jpg","incongruent","m",554.147583,"f","f","left","(862, 362)",153,1,556.329014511787,-76.2755207778056,"  825.32",147,4,1,1
"52",158,"left","SHINEd_rose.jpg","incongruent","n",654.3069,"j","j","right","(148, 362)",430,1,656.541696174628,23.9371608850353," 2536.60",63,4,1,1
"52",159,"right","SHINEd_mosquito.jpg","congruent","n",675.721892,"f","j","right","(862, 362)",393,0,678.010052837469,45.4055175478762," 1457.02",412,4,1,1
"52",160,"left","SHINEd_Clarinet.jpg","congruent","m",527.722963,"j","f","left","(148, 362)",6,0,530.06448850031,-102.540046789283," 7333.77",199,4,0,0
"52",161,"left","SHINEd_treestump.jpg","incongruent","n",922.97037,"j","j","right","(148, 362)",414,1,925.365260163151,292.760724873558," 1489.79",38,4,1,1
"52",162,"right","SHINEd_frog.jpg","congruent","n",509.556223,"j","j","right","(862, 362)",345,1,512.004477825992,-120.600057463601,"  214.96",333,3,0,0
"52",163,"right","SHINEd_Vest.jpg","incongruent","m",754.555581,"f","f","left","(862, 362)",5,1,757.057200488833,124.45266519924," 1113.07",163,4,1,1
"52",164,"right","SHINEd_cottonplant.jpg","congruent","n",959.092244,"j","j","right","(862, 362)",297,1,961.647228151674,329.042692862081," 2177.90",302,4,1,1
"52",165,"left","SHINEd_Cat.jpg","incongruent","n",522.305308,"j","j","right","(148, 362)",362,1,524.913656814514,-107.690878475078," 3454.77",2,4,1,1
"52",166,"right","SHINEd_Ruler_Wooden.jpg","incongruent","m",494.601058,"f","f","left","(862, 362)",73,1,497.262771477355,-135.341763812237," 1100.78",236,4,1,1
"52",167,"left","SHINEd_Teapot.jpg","congruent","m",707.603291,"f","f","left","(148, 362)",214,1,710.318369140196,77.7138338506036," 2185.23",55,2,1,NA
"52",168,"left","SHINEd_Feet.jpg","incongruent","n",599.528676,"j","j","right","(148, 362)",310,1,602.297118803037,-30.3074164865554," 2718.44",425,4,0,0
"52",169,"left","SHINEd_Bucket_Rusty.jpg","congruent","m",691.753713,"j","f","left","(148, 362)",34,0,694.575520465878,61.9709851762854," 2094.22",110,4,1,1
"52",170,"left","SHINEd_LawnMower.jpg","congruent","m",551.280119,"f","f","left","(148, 362)",46,1,554.155291128719,-78.4492441608736," 1764.06",181,3,0,0
"52",171,"left","SHINEd_USBKey.jpg","congruent","m",725.249792,"f","f","left","(148, 362)",90,1,728.17832879156,95.5737935019673," 1729.99",308,4,1,1
"52",172,"right","SHINEd_BusStop.jpg","incongruent","m",560.893679,"j","f","left","(862, 362)",145,0,563.875580454401,-68.7289548351917,"  957.46",348,3,1,1
"52",173,"left","SHINEd_Boardgame_Chess.jpg","congruent","m",740.514374,"f","f","left","(148, 362)",86,1,743.549640117242,110.945104827649,"  751.98",431,3,0,0
"52",174,"right","SHINEd_Binder.jpg","incongruent","m",791.216553,"j","f","left","(862, 362)",65,0,794.305183780083,161.70064849049," 1337.28",435,3,1,1
"52",175,"right","SHINEd_pumpkinseeds-.jpg","congruent","n",930.182895,"j","j","right","(862, 362)",237,1,933.324890442924,300.720355153331,"  992.97",170,4,1,1
"52",176,"left","SHINEd_TissueBox.jpg","congruent","m",550.202717,"f","f","left","(148, 362)",50,1,553.398077105765,-79.206458183828," 1903.04",191,4,1,1
"52",177,"right","SHINEd_Hat_Baseball.jpg","incongruent","m",563.220813,"f","f","left","(862, 362)",189,1,566.469537768606,-66.1349975209871," 1583.26",169,4,1,1
"52",178,"right","SHINEd_red_panda.jpg","congruent","n",564.361926,"j","j","right","(862, 362)",273,1,567.664015431447,-64.9405198581461," 1648.04",37,3,0,0
"52",179,"right","SHINEd_Boat_Colourful.jpg","incongruent","m",639.447806,"j","f","left","(862, 362)",173,0,642.803260094287,10.1987248046948,"  910.00",245,3,0,0
"52",180,"left","SHINEd_Hourglass.jpg","congruent","m",NA,"miss","f","left","(148, 362)",110,0,NA,NA," 1356.75",58,1,0,0
"52",181,"left","SHINEd_Glove_Rubber.jpg","congruent","m",583.648858,"f","f","left","(148, 362)",138,1,587.111041419969,-45.4934938696234," 1046.65",398,2,1,NA
"52",182,"left","SHINEd_Nuts_Pecan.jpg","incongruent","n",579.333196,"j","j","right","(148, 362)",246,1,582.84874408281,-49.7557912067824,"  980.77",237,4,1,1
"52",183,"left","SHINEd_HairClip.jpg","congruent","m",592.5311,"f","f","left","(148, 362)",194,1,596.100012745651,-36.5045225439415," 1247.19",392,3,0,0
"52",184,"right","SHINEd_Pants_Firefighter.jpg","incongruent","m",629.605511,"f","f","left","(862, 362)",1,1,633.227788408492,0.623253118899385," 2300.13",452,4,1,1
"52",185,"right","SHINEd_rhino horn.jpg","congruent","n",847.678306,"j","j","right","(862, 362)",249,1,851.353948071333,218.74941278174," 1172.51",248,4,1,1
"52",186,"left","SHINEd_Cranberry.jpg","incongruent","n",428.349834,"f","j","right","(148, 362)",398,0,432.078840734174,-200.525694555419,"  798.80",184,3,1,1
"52",187,"left","SHINEd_Cheesegrater_Handheld.jpg","congruent","m",585.604464,"f","f","left","(148, 362)",162,1,589.386835397015,-43.2176998925778,"  811.50",263,3,0,0
"52",188,"right","SHINEd_ShoppingCart.jpg","incongruent","m",518.609124,"f","f","left","(862, 362)",109,1,522.444860059856,-110.159675229737,"  791.01",194,3,0,0
"52",189,"right","SHINEd_Switch_LightWhite.jpg","incongruent","m",506.133981,"f","f","left","(862, 362)",57,1,510.023081722697,-122.581453566896," 1780.79",381,3,1,1
"52",190,"left","SHINEd_ClothCoaster.jpg","congruent","m",518.013295,"f","f","left","(148, 362)",142,1,521.955760385538,-110.648774904055," 1744.61",207,4,0,0
"52",191,"right","SHINEd_Bird_Parrot.jpg","congruent","n",555.907479,"j","j","right","(862, 362)",233,1,559.903309048379,-72.7012262412141,"  652.65",167,3,0,0
"52",192,"left","SHINEd_skeleton-lizard.jpg","incongruent","n",544.823909,"j","j","right","(148, 362)",250,1,548.87310371122,-83.7314315783732," 1126.11",40,4,1,1
"52",193,"left","SHINEd_Gecko.jpg","incongruent","n",651.964856,"f","j","right","(148, 362)",370,0,656.06741537406,23.4628800844678," 1035.71",247,4,1,1
"52",194,"left","SHINEd_Cane_Metal.jpg","congruent","m",583.656885,"f","f","left","(148, 362)",190,1,587.812809036901,-44.7917262526913," 3076.22",18,4,1,1
"52",195,"right","SHINEd_DeepFryer.jpg","incongruent","m",579.10941,"j","f","left","(862, 362)",161,0,583.318698699742,-49.2858365898504,"  731.54",278,4,1,1
"52",196,"right","SHINEd_Giraffe.jpg","congruent","n",679.820876,"j","j","right","(862, 362)",381,1,684.083529362583,51.4789940729905,"  659.72",261,4,1,1
"52",197,"right","SHINEd_cheetah.jpg","congruent","n",595.822735,"j","j","right","(862, 362)",245,1,600.138753025424,-32.4657822641686," 1060.51",370,3,1,1
"52",198,"left","SHINEd_discoball.jpg","congruent","m",932.788367,"f","f","left","(148, 362)",226,1,937.157749688265,304.553214398672," 1409.29",130,4,1,1
"52",199,"left","SHINEd_Bowl_Fruits.jpg","incongruent","n",472.771322,"f","j","right","(148, 362)",434,0,477.194069351106,-155.410465938487," 2568.47",31,4,1,1
"52",200,"right","SHINEd_Fish_Rockbass.jpg","congruent","n",629.523936,"f","j","right","(862, 362)",341,0,634.000048013947,1.39551272435431," 1077.95",71,4,1,1
"52",201,"left","SHINEd_ElectricOutlet.jpg","congruent","m",608.250603,"f","f","left","(148, 362)",102,1,612.780079676788,-19.8244556128048," 1391.65",399,3,0,0
"52",202,"left","SHINEd_red_Cabbage.jpg","incongruent","n",596.735874,"j","j","right","(148, 362)",230,1,601.318715339629,-31.2858199499639,"  975.27",148,3,0,0
"52",203,"right","SHINEd_horse.jpg","congruent","n",512.067335,"j","j","right","(862, 362)",269,1,516.70354100247,-115.900994287123," 1088.01",360,3,0,0
"52",204,"right","SHINEd_Leaf_Clover.jpg","congruent","n",579.510867,"j","j","right","(862, 362)",449,1,584.200437665311,-48.4040976242821," 1219.64",32,4,1,1
"52",205,"left","SHINEd_peacockfeather.jpg","incongruent","n",840.760543,"j","j","right","(148, 362)",382,1,845.503478328152,212.898943038559," 1063.78",337,4,1,1
"52",206,"left","SHINEd_brownbeans.jpg","incongruent","n",467.391912,"j","j","right","(148, 362)",366,1,472.188211990993,-160.4163232986," 1804.92",67,4,1,1
"52",207,"left","SHINEd_Bicycle_Kids.jpg","congruent","m",607.103236,"f","f","left","(148, 362)",26,1,611.952900653833,-20.6516346357592,"  195.67",218,3,0,0
"52",208,"right","SHINEd_HotWaterBottle.jpg","incongruent","m",562.325681,"f","f","left","(862, 362)",113,1,567.228710316674,-65.3758249729183," 1369.85",81,1,0,0
"52",209,"left","SHINEd_Nuts_Walnut.jpg","incongruent","n",719.348885,"j","j","right","(148, 362)",446,1,724.305278979515,91.7007436899226,"  997.05",294,4,1,1
"52",210,"left","SHINEd_Mask_HockeyGoalie.jpg","congruent","m",749.407374,"f","f","left","(148, 362)",126,1,754.417132642356,121.812597352764," 2314.49",27,4,1,1
"52",211,"right","SHINEd_Knee.jpg","congruent","n",704.829202,"f","j","right","(862, 362)",309,0,709.892325305197,77.2877900156045," 1397.12",208,4,1,1
"52",212,"right","SHINEd_DogHouse.jpg","incongruent","m",583.125202,"f","f","left","(862, 362)",165,1,588.241689968038,-44.3628453215547," 1004.58",216,3,0,0
"52",213,"left","SHINEd_ladybug.jpg","incongruent","n",489.189082,"j","j","right","(148, 362)",238,1,494.358934630879,-138.245600658714," 1093.89",50,3,1,1
"52",214,"right","SHINEd_Carrot.jpg","congruent","n",886.081572,"j","j","right","(862, 362)",281,1,891.30478929372,258.700254004127," 1100.55",185,4,1,1
"52",215,"right","SHINEd_Skates.jpg","incongruent","m",499.420414,"j","f","left","(862, 362)",125,0,504.696995956561,-127.907539333032," 1424.10",109,4,0,0
"52",216,"left","SHINEd_Dragonfly.jpg","incongruent","n",879.290056,"f","j","right","(148, 362)",346,0,884.620002619402,252.015467329809," 2134.26",238,4,1,1
"52",217,"left","SHINEd_Helmet_Bicycle.jpg","congruent","m",826.857315,"f","f","left","(148, 362)",18,1,832.240626282243,199.63609099265," 1486.05",453,4,1,1
"52",218,"left","SHINEd_eucalyptus.jpg","incongruent","n",709.913342,"j","j","right","(148, 362)",282,1,715.350017945084,82.7454826554909,"  904.28",112,4,0,0
"52",219,"right","SHINEd_Colander.jpg","incongruent","m",691.913847,"f","f","left","(862, 362)",41,1,697.403887607925,64.7993523183319,"  966.03",309,2,0,0
"52",220,"left","SHINEd_Deodorant.jpg","congruent","m",767.193815,"j","f","left","(148, 362)",118,0,772.737220270766,140.132684981173," 1631.22",45,4,1,1
"52",221,"left","SHINEd_Mirror_Makeup.jpg","congruent","m",609.479277,"f","f","left","(148, 362)",122,1,615.076046933606,-17.5284883559862," 1094.42",456,1,0,0
"52",222,"right","SHINEd_Bird_Eagle.jpg","congruent","n",502.945051,"j","j","right","(862, 362)",257,1,508.595185596447,-124.009349693145," 1406.42",363,4,1,1
"52",223,"left","SHINEd_Heater_Outdoor.jpg","congruent","m",618.998905,"f","f","left","(148, 362)",170,1,624.702404259288,-7.90213103030434," 1288.17",347,2,1,NA
"52",224,"left","SHINEd_Lynx.jpg","incongruent","n",513.700087,"j","j","right","(148, 362)",438,1,519.456950922129,-113.147584367463," 1078.06",384,2,1,NA
"52",225,"right","SHINEd_Cannon.jpg","incongruent","m",726.007172,"f","f","left","(862, 362)",61,1,731.81740058497,99.2128652953774," 2286.53",70,4,1,1
"52",226,"left","SHINEd_Calculator.jpg","congruent","m",746.909985,"f","f","left","(148, 362)",94,1,752.773578247811,120.169042958218," 1221.23",106,4,1,1
"52",227,"left","SHINEd_skunk.jpg","incongruent","n",701.937289,"j","j","right","(148, 362)",290,1,707.854246910652,75.2497116210593,"  853.44",249,4,0,0
"52",228,"left","SHINEd_avocado.jpg","incongruent","n",587.481869,"j","j","right","(148, 362)",394,1,593.452191573493,-39.1523437160998," 1326.72",401,3,1,1
