"participant","trial_index","screenposition","stimulus","trialtype","classifyenc","rt","response","responsecorrect","responsecorrect_side","screenlocation","stimnum","acc","rtResidual","rtResidualC","rt_rec","trialno_rec","ratingConfidence","acc_rec","memoryHits.hc"
"56",1,"right","SHINEd_Chimpanzee.jpg","incongruent","n",713.591174,"f","f","left","(862, 362)",255,1,714.435877212912,150.055562537357," 1223.63",273,2,0,0
"56",2,"right","SHINEd_Razor.jpg","congruent","m",630.094368,"j","j","right","(862, 362)",119,1,630.931699757967,66.5513850824118,"  927.88",352,1,1,NA
"56",3,"right","SHINEd_KeyHook_Empty.jpg","congruent","m",610.087595,"j","j","right","(862, 362)",223,1,610.91755530302,46.5372406274644,"  990.97",81,4,1,1
"56",4,"right","SHINEd_Flower_Daisy.jpg","incongruent","n",511.656099,"f","f","left","(862, 362)",351,1,512.478687848073,-51.9016268274828,"  927.93",163,4,1,1
"56",5,"right","SHINEd_Toolbox_RedOpen.jpg","congruent","m",587.985993,"j","j","right","(862, 362)",39,1,588.801210393126,24.4208957175699,"  814.37",434,4,1,1
"56",6,"right","SHINEd_Seahorse.jpg","incongruent","n",609.673483,"j","f","left","(862, 362)",347,0,610.481328938178,46.1010142626227,"  831.73",112,4,1,1
"56",7,"left","SHINEd_Dill.jpg","congruent","n",533.661324,"f","f","left","(148, 362)",256,1,534.461798483231,-29.9185161923246," 1465.09",5,4,1,1
"56",8,"left","SHINEd_Hammock.jpg","incongruent","m",667.467609,"j","j","right","(148, 362)",208,1,668.260712028284,103.880397352728," 1071.88",88,4,1,1
"56",9,"left","SHINEd_mint.jpg","congruent","n",648.086112,"f","f","left","(148, 362)",360,1,648.871843573336,84.4915288977807," 1231.98",159,2,0,0
"56",10,"right","SHINEd_Ferret.jpg","incongruent","n",550.014092,"f","f","left","(862, 362)",239,1,550.792452118389,-13.5878625571665," 2791.16",186,2,0,0
"56",11,"right","SHINEd_Staircase_Curving.jpg","congruent","m",594.56302,"j","j","right","(862, 362)",115,1,595.334008663442,30.9536939878863,"  903.04",354,4,1,1
"56",12,"right","SHINEd_feather.jpg","incongruent","n",631.008452,"f","f","left","(862, 362)",415,1,631.772069208495,67.391754532939,"  838.57",282,4,1,1
"56",13,"right","SHINEd_Box_GiftTopView.jpg","congruent","m",532.930398,"j","j","right","(862, 362)",219,1,533.686643753547,-30.6936709220084,"  868.87",410,4,1,1
"56",14,"left","SHINEd_Oneholepunch.jpg","incongruent","m",536.616453,"j","j","right","(148, 362)",76,1,537.3653272986,-27.0149873769556," 1351.01",223,3,0,0
"56",15,"right","SHINEd_Bus_School.jpg","congruent","m",518.56007,"j","j","right","(862, 362)",171,1,519.301572843653,-45.0787418319029," 1175.59",320,3,0,0
"56",16,"left","SHINEd_Card_TwoSpade.jpg","incongruent","m",571.123192,"j","j","right","(148, 362)",88,1,571.857323388705,7.47700871314983,"  815.85",416,4,1,1
"56",17,"right","SHINEd_MannequinBust.jpg","congruent","m",615.225492,"j","j","right","(862, 362)",103,1,615.952251933758,51.5719372582026," 1477.79",430,4,1,1
"56",18,"right","SHINEd_moth.jpg","incongruent","n",NA,"miss","f","left","(862, 362)",427,0,NA,NA," 1567.30",269,2,0,0
"56",19,"left","SHINEd_Tape_Scotch.jpg","incongruent","m",497.575143,"j","j","right","(148, 362)",228,1,498.287160023864,-66.093154651692," 1303.32",275,2,0,0
"56",20,"left","SHINEd_PassionFruit.jpg","congruent","n",694.137484,"f","f","left","(148, 362)",452,1,694.842129568916,130.461814893361,"  982.62",76,4,1,1
"56",21,"right","SHINEd_Iguana.jpg","incongruent","n",474.67098,"j","f","left","(862, 362)",387,0,475.368254113969,-89.0120605615866," 1439.01",194,4,1,1
"56",22,"left","SHINEd_alarm.jpg","incongruent","m",655.551632,"j","j","right","(148, 362)",96,1,656.241534659022,91.8612199834662," 1695.14",59,3,0,0
"56",23,"right","SHINEd_LightBulb_White.jpg","congruent","m",493.620809,"j","j","right","(862, 362)",47,1,494.303340204074,-70.0769744714812," 6127.01",114,2,0,0
"56",24,"right","SHINEd_OnionRed.jpg","incongruent","n",595.185373,"f","f","left","(862, 362)",383,1,595.860532749127,31.4802180735716,"  965.91",242,4,1,1
"56",25,"right","SHINEd_Basket_Plastic.jpg","congruent","m",575.459135,"j","j","right","(862, 362)",211,1,576.12692329418,11.7466086186242," 1144.66",300,3,1,1
"56",26,"left","SHINEd_Dart.jpg","incongruent","m",764.630997,"j","j","right","(148, 362)",20,1,765.291413839233,200.911099163677,"  904.07",280,4,1,1
"56",27,"right","SHINEd_Playard.jpg","congruent","m",537.671188,"j","j","right","(862, 362)",59,1,538.324233384285,-26.0560812912703," 1377.47",37,4,1,1
"56",28,"left","SHINEd_vulture.jpg","congruent","n",517.878506,"f","f","left","(148, 362)",436,1,518.524179929338,-45.8561347462176,"  926.35",442,4,1,1
"56",29,"right","SHINEd_dates_fresh.jpg","incongruent","n",652.020959,"f","f","left","(862, 362)",319,1,652.659261474391,88.2789467988351," 1022.69",70,4,1,1
"56",30,"right","SHINEd_Fence_Wooden.jpg","congruent","m",488.896427,"j","j","right","(862, 362)",163,1,489.527358019443,-74.8529566561121," 1672.10",56,4,1,1
"56",31,"left","SHINEd_ScannerShoplifting.jpg","incongruent","m",588.717062,"j","j","right","(148, 362)",100,1,589.340621564496,24.9603068889406," 1022.19",415,4,1,1
"56",32,"left","SHINEd_SnowGlobe.jpg","incongruent","m",481.246344,"j","j","right","(148, 362)",84,1,481.862532109549,-82.5177825660067," 1288.34",38,4,1,1
"56",33,"left","SHINEd_maggotts.jpg","congruent","n",NA,"miss","f","left","(148, 362)",392,0,NA,NA," 3103.07",161,2,1,NA
"56",34,"left","SHINEd_Bus_DoubleDecker.jpg","incongruent","m",538.913154,"j","j","right","(148, 362)",184,1,539.514599199654,-24.8657154759013,"  974.21",452,4,1,1
"56",35,"left","SHINEd_HorseshoeCrab.jpg","congruent","n",633.668408,"f","f","left","(148, 362)",260,1,634.262481744707,69.8821670691514," 1096.78",155,3,1,1
"56",36,"right","SHINEd_Olives.jpg","incongruent","n",734.917578,"f","f","left","(862, 362)",419,1,735.50428028976,171.123965614204," 1461.83",233,2,0,0
"56",37,"left","SHINEd_Hazelnut.jpg","congruent","n",468.709395,"f","f","left","(148, 362)",252,1,469.288725834812,-95.0915888407431," 1543.19",425,4,1,1
"56",38,"left","SHINEd_Bib.jpg","incongruent","m",648.326707,"j","j","right","(148, 362)",136,1,648.898666379865,84.5183517043097,"  949.19",431,4,1,1
"56",39,"right","SHINEd_Snowboard.jpg","congruent","m",540.738415,"j","j","right","(862, 362)",23,1,541.303002924918,-23.0773117506377,"  905.22",99,4,1,1
"56",40,"right","SHINEd_Shark_GreatWhite.jpg","incongruent","n",562.584219,"f","f","left","(862, 362)",287,1,563.141435469971,-1.23887920558501,"  821.59",341,4,1,1
"56",41,"right","SHINEd_MousepadAndMouse.jpg","congruent","m",544.576849,"j","j","right","(862, 362)",99,1,545.126694015023,-19.2536206605322,"  983.89",310,4,1,1
"56",42,"right","SHINEd_Potato.jpg","incongruent","n",452.901129,"f","f","left","(862, 362)",423,1,453.443602560076,-110.93671211548," 1093.34",108,4,1,1
"56",43,"right","SHINEd_FireHydrant.jpg","congruent","m",434.090499,"j","j","right","(862, 362)",167,1,434.625601105129,-129.754713570427,"  903.63",276,4,1,1
"56",44,"right","SHINEd_Stingray.jpg","incongruent","n",591.983528,"j","f","left","(862, 362)",315,0,592.511258650182,28.1309439746259,"  969.03",342,4,1,1
"56",45,"left","SHINEd_DrainPlug.jpg","incongruent","m",724.940606,"j","j","right","(148, 362)",140,1,725.460965195234,161.080650519679," 2559.63",162,3,0,0
"56",46,"left","SHINEd_Banana.jpg","congruent","n",705.244486,"f","f","left","(148, 362)",376,1,705.757473740287,141.377159064731," 1376.42",313,4,0,0
"56",47,"right","SHINEd_Sand.jpg","incongruent","n",NA,"miss","f","left","(862, 362)",279,0,NA,NA," 1448.41",268,3,1,1
"56",48,"left","SHINEd_Bolt.jpg","incongruent","m",527.897541,"j","j","right","(148, 362)",32,1,528.395785830392,-35.9845288451632,"  878.47",325,4,1,1
"56",49,"left","SHINEd_raspberry.jpg","congruent","n",517.698475,"f","f","left","(148, 362)",456,1,518.189348375445,-46.1909663001105," 1214.40",278,2,0,0
"56",50,"right","SHINEd_aloe.jpg","incongruent","n",681.512231,"f","f","left","(862, 362)",299,1,681.995732920498,117.615418244942,"  862.22",279,4,1,1
"56",51,"left","SHINEd_alpaca_fo.jpg","congruent","n",495.315106,"f","f","left","(148, 362)",400,1,495.791236465551,-68.5890782100051," 2328.12",321,3,1,1
"56",52,"left","SHINEd_blackberry.jpg","congruent","n",467.338775,"f","f","left","(148, 362)",280,1,467.807534010603,-96.5727806649524,"  846.09",219,4,1,1
"56",53,"left","SHINEd_EspressoMachine.jpg","incongruent","m",536.908739,"j","j","right","(148, 362)",156,1,537.370126555656,-27.0101881198997," 1093.21",371,4,1,1
"56",54,"left","SHINEd_housefly.jpg","congruent","n",501.673713,"f","f","left","(148, 362)",420,1,502.127729100709,-62.2525855748469," 1103.46",412,3,0,0
"56",55,"right","SHINEd_bat.jpg","incongruent","n",579.003149,"f","f","left","(862, 362)",403,1,579.449793645761,15.0694789702058," 1527.06",156,3,1,1
"56",56,"right","SHINEd_sanddollar.jpg","incongruent","n",551.876028,"f","f","left","(862, 362)",295,1,552.315301190814,-12.0650134847415," 1200.37",437,4,1,1
"56",57,"left","SHINEd_Clam.jpg","congruent","n",541.116316,"f","f","left","(148, 362)",340,1,541.548217735867,-22.8320969396888,"  791.86",297,4,1,1
"56",58,"left","SHINEd_IroningBoard.jpg","incongruent","m",520.75011,"j","j","right","(148, 362)",52,1,521.174640280919,-43.2056743946361,"  816.27",317,4,1,1
"56",59,"left","SHINEd_blueberries.jpg","congruent","n",437.967673,"f","f","left","(148, 362)",232,1,438.384831825972,-125.995482849583,"  863.32",350,2,0,0
"56",60,"right","SHINEd_sunflowers.jpg","incongruent","n",523.857541,"f","f","left","(862, 362)",395,1,524.267328371025,-40.1129863045307," 7653.44",367,3,0,0
"56",61,"right","SHINEd_Seashell_RoseMurex.jpg","incongruent","n",495.692017,"f","f","left","(862, 362)",327,1,496.094432916078,-68.2858817594779," 1816.13",137,4,1,1
"56",62,"right","SHINEd_whistle.jpg","congruent","m",508.773082,"j","j","right","(862, 362)",79,1,509.16812646113,-55.2121882144252,"  894.75",101,4,1,1
"56",63,"right","SHINEd_penguin.jpg","incongruent","n",465.375148,"f","f","left","(862, 362)",307,1,465.762821006183,-98.6174936693724," 1542.78",145,2,0,0
"56",64,"right","SHINEd_Barbecue_Gas.jpg","congruent","m",470.988612,"j","j","right","(862, 362)",159,1,471.368913551236,-93.0114011243198," 2231.59",332,3,0,0
"56",65,"left","SHINEd_Clothespin_Red.jpg","incongruent","m",563.564944,"j","j","right","(148, 362)",60,1,563.937874096289,-0.44244057926706,"  839.03",347,4,1,1
"56",66,"left","SHINEd_Bird_CanadianGoose.jpg","congruent","n",432.018981,"f","f","left","(148, 362)",388,1,432.384539641341,-131.995775034214," 1605.74",229,2,1,NA
"56",67,"left","SHINEd_Boombox.jpg","incongruent","m",492.624116,"j","j","right","(148, 362)",92,1,492.982303186394,-71.3980114891616," 2158.83",449,2,1,NA
"56",68,"left","SHINEd_Pitcher.jpg","incongruent","m",482.872823,"j","j","right","(148, 362)",56,1,483.223638731447,-81.1566759441089," 1238.76",47,4,1,1
"56",69,"left","SHINEd_anteater.jpg","congruent","n",480.604286,"f","f","left","(148, 362)",368,1,480.947730276499,-83.4325843990562," 1390.03",398,4,1,1
"56",70,"left","SHINEd_Earrings_Dangling.jpg","incongruent","m",493.077998,"f","j","right","(148, 362)",196,0,493.414070821552,-70.9662438540035," 1471.34",209,4,1,1
"56",71,"left","SHINEd_Plum.jpg","congruent","n",699.070232,"f","f","left","(148, 362)",244,1,699.398933366605,135.018618691049," 1055.24",231,3,0,0
"56",72,"left","SHINEd_PencilCase.jpg","incongruent","m",472.166675,"j","j","right","(148, 362)",68,1,472.488004911658,-91.892309763898," 1606.39",441,4,1,1
"56",73,"left","SHINEd_dove.jpg","congruent","n",525.014831,"f","f","left","(148, 362)",308,1,525.32878945671,-39.0515252188453,"  783.29",73,3,0,0
"56",74,"right","SHINEd_puffer-fish.jpg","incongruent","n",591.010088,"f","f","left","(862, 362)",339,1,591.316675001763,26.9363603262074," 1696.18",440,3,0,0
"56",75,"left","SHINEd_Lobster.jpg","congruent","n",469.674363,"f","f","left","(148, 362)",288,1,469.973578546816,-94.4067361287398,"  960.16",326,2,0,0
"56",76,"left","SHINEd_Squid_Pink.jpg","congruent","n",474.884382,"f","f","left","(148, 362)",336,1,475.176226091869,-89.2040885836871,"  968.33",104,3,0,0
"56",77,"left","SHINEd_Tie.jpg","incongruent","m",543.931827,"j","j","right","(148, 362)",192,1,544.216299636921,-20.1640150386344," 1486.88",28,4,1,1
"56",78,"right","SHINEd_MalletJudge.jpg","congruent","m",653.22614,"j","j","right","(862, 362)",35,1,653.503241181974,89.1229265064183,"  917.90",361,4,1,1
"56",79,"left","SHINEd_SpinningWheel.jpg","incongruent","m",531.403021,"j","j","right","(148, 362)",124,1,531.672750727027,-32.707563948529," 1262.84",288,4,0,0
"56",80,"left","SHINEd_groundhog.jpg","congruent","n",479.693936,"f","f","left","(148, 362)",404,1,479.956294272079,-84.4240204034762," 2743.52",149,2,0,0
"56",81,"right","SHINEd_turkey.jpg","incongruent","n",507.780679,"f","f","left","(862, 362)",391,1,508.035665817132,-56.3446488584235," 1684.68",366,3,0,0
"56",82,"left","SHINEd_Boar.jpg","congruent","n",506.638996,"f","f","left","(148, 362)",264,1,506.886611362185,-57.4937033133708,"  854.61",383,3,0,0
"56",83,"right","SHINEd_tooth.jpg","incongruent","n",600.411288,"f","f","left","(862, 362)",363,1,600.651531907238,36.2712172316819,"  990.00",387,4,1,1
"56",84,"left","SHINEd_rhino.jpg","congruent","n",604.951071,"f","f","left","(148, 362)",352,1,605.18394345229,40.8036287767346," 1615.86",260,4,1,1
"56",85,"left","SHINEd_Guitar_Acoustic.jpg","incongruent","m",505.48686,"j","j","right","(148, 362)",12,1,505.712360997343,-58.6679536782127,"  855.47",356,4,1,1
"56",86,"left","SHINEd_Pig.jpg","congruent","n",448.128684,"f","f","left","(148, 362)",424,1,448.346813542396,-116.03350113316," 1711.00",324,4,1,1
"56",87,"left","SHINEd_Lion.jpg","congruent","n",443.870277,"f","f","left","(148, 362)",316,1,444.081035087448,-120.299279588107," 1217.83",150,3,0,0
"56",88,"right","SHINEd_tentacle.jpg","incongruent","n",657.499702,"f","f","left","(862, 362)",247,1,657.703088632501,93.3227739569454," 1128.48",40,4,1,1
"56",89,"left","SHINEd_lorises.jpg","congruent","n",534.048943,"f","f","left","(148, 362)",428,1,534.244958177554,-30.1353564980018," 1325.11",63,3,0,0
"56",90,"right","SHINEd_Eggplant.jpg","incongruent","n",571.552581,"f","f","left","(862, 362)",267,1,571.741224722607,7.36091004705094," 1537.35",135,4,1,1
"56",91,"right","SHINEd_Owl.jpg","incongruent","n",544.823143,"f","f","left","(862, 362)",407,1,545.004415267659,-19.3758994078964," 1550.17",455,3,0,0
"56",92,"right","SHINEd_FloppyDisk.jpg","congruent","m",540.765991,"j","j","right","(862, 362)",147,1,540.939891812712,-23.4404228628437," 1303.73",338,2,0,0
"56",93,"left","SHINEd_Outhouse.jpg","incongruent","m",682.511677,"j","j","right","(148, 362)",164,1,682.678206357765,118.297891682209," 1121.27",95,4,1,1
"56",94,"right","SHINEd_Belt.jpg","congruent","m",542.485905,"f","j","right","(862, 362)",195,0,542.645062902817,-21.7352517727382," 6854.15",208,3,0,0
"56",95,"right","SHINEd_edamame.jpg","incongruent","n",602.884896,"f","f","left","(862, 362)",303,1,603.03668244787,38.6563677723145," 1264.84",353,1,0,0
"56",96,"right","SHINEd_Fish_Swordfish.jpg","incongruent","n",720.422791,"f","f","left","(862, 362)",331,1,720.567205992923,156.186891317367," 1039.80",346,3,0,0
"56",97,"right","SHINEd_Binoculars.jpg","congruent","m",670.666604,"j","j","right","(862, 362)",199,1,670.803647537976,106.42333286242," 1457.22",15,4,1,1
"56",98,"right","SHINEd_Hedgehog.jpg","incongruent","n",538.714251,"f","f","left","(862, 362)",243,1,538.843923083028,-25.5363915925274,"  791.55",373,4,1,1
"56",99,"left","SHINEd_TigerWhite.jpg","congruent","n",567.020347,"f","f","left","(148, 362)",440,1,567.142647628081,2.76233295252538,"12808.15",3,4,1,1
"56",100,"right","SHINEd_white sesame.jpg","incongruent","n",843.386398,"j","f","left","(862, 362)",371,0,843.501327173134,279.121012497578," 1598.87",78,3,1,1
"56",101,"left","SHINEd_GasStation.jpg","incongruent","m",623.274521,"j","j","right","(148, 362)",168,1,623.382078718186,59.0017640426309," 1271.03",118,1,0,0
"56",102,"left","SHINEd_Celery.jpg","congruent","n",588.473258,"f","f","left","(148, 362)",272,1,588.573444263239,24.1931295876835," 2976.22",25,2,0,0
"56",103,"right","SHINEd_pine-cone-.jpg","incongruent","n",593.673435,"f","f","left","(862, 362)",399,1,593.766249808292,29.3859351327363," 1334.16",368,4,1,1
"56",104,"left","SHINEd_Pepper_Green.jpg","congruent","n",582.519237,"f","f","left","(148, 362)",372,1,582.604680353345,18.2243656777889," 1071.04",91,1,0,0
"56",105,"right","SHINEd_KiddiePool.jpg","congruent","m",625.668389,"j","j","right","(862, 362)",87,1,625.746460898397,61.3661462228417,"  959.10",75,4,1,1
"56",106,"left","SHINEd_Fridge.jpg","incongruent","m",583.741225,"j","j","right","(148, 362)",44,1,583.81192544345,19.4316107678944," 1631.23",19,4,1,1
"56",107,"left","SHINEd_gazelle.jpg","congruent","n",603.289195,"f","f","left","(148, 362)",268,1,603.352523988503,38.9722093129471," 2502.72",234,2,0,0
"56",108,"left","SHINEd_LifeJacket_BlueYellow.jpg","incongruent","m",584.033943,"j","j","right","(148, 362)",16,1,584.089900533555,19.7095858579998," 2071.50",251,4,1,1
"56",109,"right","SHINEd_KitchenCloth.jpg","congruent","m",582.430204,"f","j","right","(862, 362)",143,0,582.478790078608,18.0984754030525," 2701.47",450,3,1,1
"56",110,"left","SHINEd_Bottle_Bleach.jpg","incongruent","m",627.562361,"j","j","right","(148, 362)",212,1,627.603575623661,63.2232609481053,"  879.07",217,4,1,1
"56",111,"left","SHINEd_Squash_Butternut.jpg","congruent","n",567.811706,"f","f","left","(148, 362)",444,1,567.845549168714,3.46523449315794," 7241.22",336,4,1,1
"56",112,"right","SHINEd_Cauliflower.jpg","incongruent","n",614.092315,"f","f","left","(862, 362)",291,1,614.118786713766,49.7384720382107,"  982.19",385,4,1,1
"56",113,"right","SHINEd_firetruck.jpg","congruent","m",561.387766,"j","j","right","(862, 362)",179,1,561.406866258819,-2.97344841673653," 1414.24",386,3,0,0
"56",114,"right","SHINEd_Tractor_Orange.jpg","congruent","m",461.976908,"j","j","right","(862, 362)",175,1,461.988636803872,-102.391677871684,"  981.05",274,2,0,0
"56",115,"left","SHINEd_Cassette_Audio.jpg","incongruent","m",547.138807,"j","j","right","(148, 362)",148,1,547.143164348925,-17.2371503266311," 1038.66",49,4,1,1
"56",116,"left","SHINEd_Cougar.jpg","congruent","n",536.82567,"f","f","left","(148, 362)",276,1,536.822655893977,-27.5576587815785,"  951.01",444,4,1,1
"56",117,"left","SHINEd_Glasses_Reading.jpg","incongruent","m",644.861134,"j","j","right","(148, 362)",200,1,644.85074843903,80.4704337634743,"  919.69",134,2,0,0
"56",118,"left","SHINEd_Pear_Yellow.jpg","congruent","n",585.739627,"f","f","left","(148, 362)",416,1,585.721869984083,21.341555308527,"  910.97",130,3,1,1
"56",119,"right","SHINEd_tamarinds.jpg","incongruent","n",527.639882,"f","f","left","(862, 362)",451,1,527.614753529135,-36.7655611464203,"  677.61",250,3,0,0
"56",120,"right","SHINEd_Cable_AudioSplitter.jpg","congruent","m",557.019878,"j","j","right","(862, 362)",91,1,556.987378074188,-7.39293660136762," 1006.95",53,4,1,1
"56",121,"left","SHINEd_Shampoo.jpg","incongruent","m",634.257399,"j","j","right","(148, 362)",120,1,634.217527619241,69.8372129436851," 6295.45",429,3,0,0
"56",122,"left","SHINEd_chick hatch.jpg","congruent","n",598.729848,"f","f","left","(148, 362)",384,1,598.682605164293,34.3022904887378," 1000.15",296,4,1,1
"56",123,"left","SHINEd_Boots_KneeHigh.jpg","incongruent","m",555.446314,"j","j","right","(148, 362)",152,1,555.391699709346,-8.98861496620938," 1311.17",115,1,0,0
"56",124,"left","SHINEd_Key_Car.jpg","incongruent","m",458.139042,"j","j","right","(148, 362)",176,1,458.077056254399,-106.303258421157," 2367.99",52,3,1,1
"56",125,"right","SHINEd_Dress_Blue.jpg","congruent","m",629.549848,"f","j","right","(862, 362)",3,0,629.480490799452,65.100176123896," 4623.27",204,3,1,1
"56",126,"left","SHINEd_seatAirplane.jpg","incongruent","m",515.648567,"j","j","right","(148, 362)",172,1,515.571838344504,-48.8084763310513,"  871.46",302,4,1,1
"56",127,"right","SHINEd_DryRack_Dishes.jpg","congruent","m",580.470679,"j","j","right","(862, 362)",135,1,580.386578889557,16.0062642140015," 1759.72",12,4,1,1
"56",128,"right","SHINEd_Nuts_Peanuts.jpg","incongruent","n",713.590501,"f","f","left","(862, 362)",235,1,713.49902943461,149.118714759054," 1336.98",26,4,1,1
"56",129,"left","SHINEd_fig.jpg","congruent","n",638.72404,"f","f","left","(148, 362)",412,1,638.625196979662,74.2448823041068," 3382.85",351,3,1,1
"56",130,"left","SHINEd_Exercise_Bike.jpg","incongruent","m",613.38641,"j","j","right","(148, 362)",24,1,613.280195524715,48.8998808491596,"  869.93",89,4,1,1
"56",131,"left","SHINEd_Lettuce_GreenLeaf.jpg","congruent","n",496.732551,"f","f","left","(148, 362)",248,1,496.618965069768,-67.7613496057877," 1109.84",305,3,0,0
"56",132,"right","SHINEd_Stapler_Regular.jpg","congruent","m",550.011372,"j","j","right","(862, 362)",43,1,549.890414614821,-14.4899000607349," 2551.63",125,1,0,0
"56",133,"left","SHINEd_Bag_Camera.jpg","incongruent","m",651.737929,"j","j","right","(148, 362)",216,1,651.609600159873,87.2292854843178,"  927.33",191,2,0,0
"56",134,"right","SHINEd_Bandage_Adhesive.jpg","congruent","m",568.656475,"f","j","right","(862, 362)",107,0,568.520774704926,4.14046002937048," 1143.04",166,4,1,1
"56",135,"left","SHINEd_CompassCardinal.jpg","incongruent","m",542.204075,"j","j","right","(148, 362)",40,1,542.061003249979,-22.3193114255768," 1213.35",421,3,0,0
"56",136,"right","SHINEd_Swan.jpg","incongruent","n",525.09486,"f","f","left","(862, 362)",443,1,524.944416795032,-39.435897880524," 1446.70",121,3,0,0
"56",137,"right","SHINEd_Cage_Bird.jpg","congruent","m",626.104164,"j","j","right","(862, 362)",123,1,625.946349340084,61.5660346645286," 1696.72",23,4,1,1
"56",138,"left","SHINEd_bee.jpg","congruent","n",485.80934,"f","f","left","(148, 362)",380,1,485.644153885137,-78.7361607904186,"  991.54",132,4,1,1
"56",139,"left","SHINEd_HedgeShears.jpg","incongruent","m",516.265327,"j","j","right","(148, 362)",28,1,516.09276943019,-48.287545245366,"  926.48",407,3,0,0
"56",140,"left","SHINEd_Buffalo.jpg","congruent","n",473.953409,"f","f","left","(148, 362)",432,1,473.773479975242,-90.6068347003132," 1158.37",100,4,1,1
"56",141,"right","SHINEd_elbow.jpg","incongruent","n",934.769433,"f","f","left","(862, 362)",263,1,934.582132520295,370.201817844739,"  959.13",138,4,1,1
"56",142,"left","SHINEd_Cow.jpg","congruent","n",516.002259,"f","f","left","(148, 362)",320,1,515.807587065348,-48.5727276102078,"  975.16",357,3,0,0
"56",143,"right","SHINEd_Peach.jpg","incongruent","n",490.701203,"f","f","left","(862, 362)",323,1,490.499159610401,-73.881155065155," 1191.10",401,3,0,0
"56",144,"right","SHINEd_Bed_Hospital.jpg","congruent","m",606.467954,"j","j","right","(862, 362)",207,1,606.258539155453,41.8782244798976,"  774.83",435,4,1,1
"56",145,"right","SHINEd_goldfish.jpg","incongruent","n",764.711329,"f","f","left","(862, 362)",275,1,764.494542700506,200.11422802495," 1143.39",303,4,1,1
"56",146,"right","SHINEd_Crab.jpg","incongruent","n",496.541308,"f","f","left","(862, 362)",259,1,496.317150245559,-68.0631644299969," 1470.11",154,2,1,NA
"56",147,"right","SHINEd_CapGraduation.jpg","congruent","m",566.125555,"j","j","right","(862, 362)",187,1,565.894025790611,1.51371111505578,"  721.10",372,4,1,1
"56",148,"right","SHINEd_mapleleaf.jpg","incongruent","n",500.04802,"f","f","left","(862, 362)",335,1,499.809119335664,-64.5711953398915,"  790.77",247,4,1,1
"56",149,"left","SHINEd_papaya.jpg","congruent","n",424.341663,"f","f","left","(148, 362)",292,1,424.095390880717,-140.284923794839,"  798.17",218,4,1,1
"56",150,"left","SHINEd_Scorpion.jpg","congruent","n",511.021677,"f","f","left","(148, 362)",396,1,510.76803342577,-53.612281249786," 1109.66",227,4,1,1
"56",151,"left","SHINEd_tapir copy.jpg","congruent","n",411.631707,"f","f","left","(148, 362)",408,1,411.370691970822,-153.009622704733," 1461.74",374,3,0,0
"56",152,"right","SHINEd_lime.jpg","incongruent","n",487.995604,"f","f","left","(862, 362)",439,1,487.727217515875,-76.6530971596806," 1005.88",202,2,0,0
"56",153,"left","SHINEd_Lighter_Yellow.jpg","incongruent","m",469.814625,"j","j","right","(148, 362)",104,1,469.538867060928,-94.8414476146279,"  885.60",402,4,1,1
"56",154,"right","SHINEd_ashtray.jpg","congruent","m",411.367519,"f","j","right","(862, 362)",227,0,411.084389605981,-153.295925069575," 1920.03",236,2,0,0
"56",155,"left","SHINEd_Kangaroo.jpg","congruent","n",471.019468,"f","f","left","(148, 362)",312,1,470.728967151033,-93.6513475245224," 2656.78",144,2,0,0
"56",156,"right","SHINEd_Oars.jpg","congruent","m",507.776333,"j","j","right","(862, 362)",19,1,507.478460696086,-56.9018539794697," 1777.96",21,3,1,1
"56",157,"left","SHINEd_Hat_Explorer.jpg","incongruent","m",624.897038,"j","j","right","(148, 362)",188,1,624.591794241139,60.2114795655829," 2182.27",448,3,0,0
"56",158,"left","SHINEd_CinderBlock.jpg","incongruent","m",494.937204,"j","j","right","(148, 362)",108,1,494.624588786191,-69.7557258893643," 1103.46",45,4,1,1
"56",159,"right","SHINEd_birdie.jpg","congruent","m",595.292234,"j","j","right","(862, 362)",131,1,594.972247331244,30.5919326556884," 1256.29",33,4,1,1
"56",160,"right","SHINEd_Car_Sedan.jpg","congruent","m",472.24924,"j","j","right","(862, 362)",183,1,471.921881876297,-92.4584327992589," 1646.67",131,2,0,0
"56",161,"left","SHINEd_Fan_Ceiling.jpg","incongruent","m",629.525008,"j","j","right","(148, 362)",48,1,629.190278421349,64.8099637457938," 1550.80",35,3,1,1
"56",162,"left","SHINEd_Camel_Bactrian.jpg","congruent","n",460.16874,"f","f","left","(148, 362)",344,1,459.826638966402,-104.553675709153," 1118.40",94,4,1,1
"56",163,"left","SHINEd_Golf_Club.jpg","incongruent","m",456.525442,"j","j","right","(148, 362)",132,1,456.175969511455,-108.204345164101,"  806.84",394,2,0,0
"56",164,"left","SHINEd_Pepper_Chili.jpg","congruent","n",598.079112,"f","f","left","(148, 362)",240,1,597.722268056508,33.341953380952,"  726.08",222,4,1,1
"56",165,"right","SHINEd_Coral.jpg","incongruent","n",538.486131,"f","f","left","(862, 362)",455,1,538.12191560156,-26.2583990739953,"  878.79",417,4,1,1
"56",166,"left","SHINEd_FireExtinguisher.jpg","incongruent","m",479.351776,"j","j","right","(148, 362)",112,1,478.980189146613,-85.4001255289426," 2072.68",4,3,1,1
"56",167,"right","SHINEd_Organ.jpg","congruent","m",540.040175,"j","j","right","(862, 362)",7,1,539.661216691666,-24.7190979838899," 1174.90",392,4,1,1
"56",168,"left","SHINEd_Garbage_GreenBin.jpg","incongruent","m",449.551815,"j","j","right","(148, 362)",144,1,449.165485236718,-115.214829438837,"  983.45",72,4,1,1
"56",169,"right","SHINEd_Harp.jpg","congruent","m",463.059698,"j","j","right","(862, 362)",11,1,462.665996781771,-101.714317893784,"  950.95",42,4,1,1
"56",170,"right","SHINEd_Stroller.jpg","congruent","m",523.18193,"j","j","right","(862, 362)",55,1,522.780857326824,-41.5994573487317," 1046.62",393,2,0,0
"56",171,"left","SHINEd_Cucumber.jpg","congruent","n",505.601248,"f","f","left","(148, 362)",364,1,505.192803871877,-59.187510803679," 6047.58",262,4,1,1
"56",172,"left","SHINEd_BookShelf.jpg","incongruent","m",541.833088,"j","j","right","(148, 362)",204,1,541.417272416929,-22.9630422586263," 3126.82",244,4,1,1
"56",173,"left","SHINEd_Hand.jpg","congruent","n",594.992694,"f","f","left","(148, 362)",284,1,594.569506961982,30.1891922864265,"  726.31",369,4,1,1
"56",174,"right","SHINEd_zebra.jpg","incongruent","n",576.085826,"f","f","left","(862, 362)",447,1,575.655267507035,11.2749528314792," 1037.93",419,3,0,0
"56",175,"left","SHINEd_sloth.jpg","congruent","n",635.634866,"f","f","left","(148, 362)",304,1,635.196936052087,70.8166213765319," 1214.71",266,3,1,1
"56",176,"right","SHINEd_Cup_Bathroom.jpg","congruent","m",482.963173,"j","j","right","(862, 362)",51,1,482.51787159714,-81.8624430784154," 3936.68",66,4,1,1
"56",177,"right","SHINEd_Puffin.jpg","incongruent","n",495.222811,"f","f","left","(862, 362)",231,1,494.770138142193,-69.6101765333627," 1304.51",174,4,1,1
"56",178,"left","SHINEd_CoffeeBeans.jpg","congruent","n",579.953163,"f","f","left","(148, 362)",332,1,579.493118687246,15.1128040116901,"  881.07",157,4,1,1
"56",179,"right","SHINEd_clementine.jpg","incongruent","n",561.28916,"f","f","left","(862, 362)",359,1,560.821744232298,-3.55857044325719," 1409.44",139,4,1,1
"56",180,"right","SHINEd_Notepad.jpg","congruent","m",597.218643,"j","j","right","(862, 362)",71,1,596.743855777351,32.3635411017955,"  927.02",378,4,1,1
"56",181,"right","SHINEd_Ship_Model.jpg","congruent","m",577.245864,"j","j","right","(862, 362)",83,1,576.763705322404,12.3833906468482,"  950.97",261,3,0,0
"56",182,"right","SHINEd_organutan.jpg","incongruent","n",543.910805,"f","f","left","(862, 362)",343,1,543.421274867457,-20.9590398080991," 1432.31",316,4,1,1
"56",183,"right","SHINEd_Box_Staples.jpg","congruent","m",645.021969,"f","j","right","(862, 362)",67,0,644.525067412509,80.1447527369536,"  999.80",304,3,0,0
"56",184,"left","SHINEd_Blackboard.jpg","incongruent","m",745.600215,"j","j","right","(148, 362)",72,1,745.095941957562,180.715627282006," 1135.46",397,3,0,0
"56",185,"left","SHINEd_ant.jpg","congruent","n",903.673385,"f","f","left","(148, 362)",328,1,903.161740502615,338.781425827059," 1167.91",143,4,1,1
"56",186,"left","SHINEd_Box_Package.jpg","incongruent","m",572.249183,"j","j","right","(148, 362)",220,1,571.730167047667,7.34985237211181,"  886.66",254,4,1,1
"56",187,"right","SHINEd_Dresser.jpg","congruent","m",544.879769,"j","j","right","(862, 362)",203,1,544.35338159272,-20.0269330828355," 1009.09",128,3,0,0
"56",188,"left","SHINEd_Cologne.jpg","incongruent","m",463.516865,"j","j","right","(148, 362)",116,1,462.983106137773,-101.397208537783,"  909.70",245,4,1,1
"56",189,"right","SHINEd_tree.jpg","incongruent","n",555.283174,"f","f","left","(862, 362)",375,1,554.742043682826,-9.63827099273002,"  957.90",327,3,0,0
"56",190,"right","SHINEd_paddle ball.jpg","congruent","m",728.065634,"j","j","right","(862, 362)",27,1,727.517132227878,163.136817552323," 1006.67",117,4,1,1
"56",191,"right","SHINEd_PaperCutter.jpg","congruent","m",583.124843,"j","j","right","(862, 362)",31,1,582.568969772931,18.1886550973754," 1112.27",267,4,1,1
"56",192,"left","SHINEd_ornament.jpg","incongruent","m",652.603513,"j","j","right","(148, 362)",224,1,652.040268317984,87.6599536424281," 1216.17",116,4,1,1
"56",193,"left","SHINEd_Lock_Combination.jpg","incongruent","m",488.334916,"j","j","right","(148, 362)",64,1,487.764299863036,-76.6160148125192,"  967.02",48,4,1,1
"56",194,"left","SHINEd_beetle.jpg","congruent","n",566.170006,"f","f","left","(148, 362)",356,1,565.592018408089,1.21170373253348,"  998.59",409,3,0,0
"56",195,"left","SHINEd_CanOpener.jpg","incongruent","m",562.281368,"j","j","right","(148, 362)",160,1,561.696008953142,-2.6843057224137," 1126.18",445,3,0,0
"56",196,"left","SHINEd_SpiderWeb.jpg","congruent","n",644.944945,"j","f","left","(148, 362)",348,0,644.352214498195,79.9718998226389,"  952.13",80,4,1,1
"56",197,"right","SHINEd_Bowtie.jpg","congruent","m",761.110028,"j","j","right","(862, 362)",191,1,760.509926043247,196.129611367692," 4784.51",171,3,1,1
"56",198,"right","SHINEd_WateringCan_PlasticDarkGreen.jpg","congruent","m",614.652039,"j","j","right","(862, 362)",215,1,614.0445655883,49.6642509127444,"  814.96",50,2,0,0
"56",199,"right","SHINEd_bear.jpg","incongruent","n",587.675618,"f","f","left","(862, 362)",271,1,587.060773133353,22.6804584577971,"  997.23",329,2,0,0
"56",200,"right","SHINEd_Light_Siren.jpg","congruent","m",671.653229,"j","j","right","(862, 362)",95,1,671.031012678405,106.65069800285," 1206.94",67,4,1,1
"56",201,"right","SHINEd_Candleholder_LampShaped.jpg","congruent","m",549.234531,"j","j","right","(862, 362)",111,1,548.604943223458,-15.7753714520975,"  767.25",207,3,0,0
"56",202,"right","SHINEd_beluga.jpg","incongruent","n",538.808207,"f","f","left","(862, 362)",431,1,538.171247768511,-26.2090669070447,"  822.84",82,4,1,1
"56",203,"right","SHINEd_Crayon_Green.jpg","congruent","m",423.318789,"j","j","right","(862, 362)",63,1,422.674458313564,-141.705856361992,"  822.14",355,4,1,1
"56",204,"right","SHINEd_Microwave.jpg","congruent","m",556.643818,"j","j","right","(862, 362)",155,1,555.992115858616,-8.38819881693928," 1470.53",298,3,0,0
"56",205,"right","SHINEd_pistachios-.jpg","incongruent","n",481.210187,"f","f","left","(862, 362)",411,1,480.551113403669,-83.8292012718865," 1677.70",238,2,1,NA
"56",206,"left","SHINEd_Hammer.jpg","incongruent","m",541.719998,"j","j","right","(148, 362)",36,1,541.053552948722,-23.3267617268338,"  790.02",382,3,0,0
"56",207,"left","SHINEd_Sheep.jpg","congruent","n",481.571963,"f","f","left","(148, 362)",300,1,480.898146493774,-83.4821681817811," 1263.99",299,2,0,0
"56",208,"left","SHINEd_DoubleBass.jpg","incongruent","m",623.583752,"j","j","right","(148, 362)",8,1,622.902564038827,58.5222493632716," 1199.46",418,4,1,1
"56",209,"left","SHINEd_Ball_Football.jpg","incongruent","m",493.119699,"j","j","right","(148, 362)",128,1,492.43113958388,-71.9491750916757," 1447.38",44,3,1,1
"56",210,"right","SHINEd_LetterMail.jpg","congruent","m",488.281533,"j","j","right","(862, 362)",75,1,487.585602128933,-76.7947125466229," 1294.87",190,3,0,0
"56",211,"left","SHINEd_eggs.jpg","congruent","n",589.64165,"f","f","left","(148, 362)",296,1,588.938347673985,24.5580329984298," 1459.81",358,1,0,0
"56",212,"right","SHINEd_almond.jpg","incongruent","n",507.246469,"f","f","left","(862, 362)",311,1,506.535795219038,-57.8445194565176,"  975.93",424,3,0,0
"56",213,"right","SHINEd_Seal_animal.jpg","incongruent","n",431.772598,"f","f","left","(862, 362)",379,1,431.054552764091,-133.325761911465," 4204.60",319,3,0,0
"56",214,"left","SHINEd_Leaf_Green.jpg","congruent","n",469.23475,"f","f","left","(148, 362)",448,1,468.509333309144,-95.8709813664121,"  935.07",344,3,0,0
"56",215,"right","SHINEd_Hippopotamus.jpg","incongruent","n",490.208358,"f","f","left","(862, 362)",367,1,489.475569854196,-74.9047448213594,"  888.42",438,3,0,0
"56",216,"left","SHINEd_Button.jpg","incongruent","m",541.907636,"j","j","right","(148, 362)",4,1,541.167476399249,-23.2128382763066," 1575.28",87,3,0,0
"56",217,"left","SHINEd_bullrush.jpg","congruent","n",579.572004,"j","f","left","(148, 362)",324,0,578.824472944302,14.444158268746," 1398.93",188,4,1,1
"56",218,"right","SHINEd_Panda.jpg","incongruent","n",503.586771,"f","f","left","(862, 362)",251,1,502.831868489354,-61.5484461862012,"  878.75",237,3,0,0
"56",219,"right","SHINEd_Caribou.jpg","incongruent","n",565.272884,"f","f","left","(862, 362)",435,1,564.510610034407,0.130295358851454," 1576.58",127,3,0,0
"56",220,"right","SHINEd_SpongeScrubbing.jpg","congruent","m",601.541241,"j","j","right","(862, 362)",139,1,600.77159557946,36.3912809039042," 1671.68",58,2,0,0
"56",221,"right","SHINEd_Shoes_Pumps.jpg","congruent","m",694.903301,"j","j","right","(862, 362)",151,1,694.126284124513,129.745969448957," 1159.86",62,4,1,1
"56",222,"left","SHINEd_Ginger.jpg","congruent","n",909.341718,"f","f","left","(148, 362)",236,1,908.557329669565,344.17701499401,"  984.32",119,4,1,1
"56",223,"right","SHINEd_CDstack.jpg","congruent","m",562.333677,"j","j","right","(862, 362)",15,1,561.541917214618,-2.83839746093768," 1359.95",129,3,0,0
"56",224,"left","SHINEd_RibbonSpool.jpg","incongruent","m",575.799829,"j","j","right","(148, 362)",80,1,575.000697759671,10.6203830841151," 1015.63",270,4,1,1
"56",225,"right","SHINEd_alfalfa.jpg","incongruent","n",612.804908,"f","f","left","(862, 362)",283,1,611.998405304723,47.6180906291677," 3759.65",146,4,1,1
"56",226,"right","SHINEd_Bat_Baseball.jpg","congruent","m",753.092319,"j","j","right","(862, 362)",127,1,752.278444849776,187.89813017422," 1198.66",9,4,1,1
"56",227,"right","SHINEd_alligator.jpg","incongruent","n",550.026268,"f","f","left","(862, 362)",355,1,549.205022394829,-15.1752922807268,"  934.74",216,4,1,1
"56",228,"left","SHINEd_Light_Traffic.jpg","incongruent","m",513.811172,"j","j","right","(148, 362)",180,1,512.982554939882,-51.397759735674," 3294.10",406,4,1,1
