"participant","trial_index","screenposition","stimulus","trialtype","classifyenc","rt","response","responsecorrect","responsecorrect_side","screenlocation","stimnum","acc","rtResidual","rtResidualC","rt_rec","trialno_rec","ratingConfidence","acc_rec","memoryHits.hc"
"57",1,"left","SHINEd_Buffalo.jpg","incongruent","n",790.882808,"j","j","right","(148, 362)",432,1,770.739965044391,138.350904617851," 1085.26",153,2,0,0
"57",2,"left","SHINEd_IroningBoard.jpg","congruent","m",633.678497,"f","f","left","(148, 362)",52,1,613.710628925562,-18.6784315009782," 2908.78",101,3,1,1
"57",3,"left","SHINEd_Pitcher.jpg","congruent","m",525.040728,"f","f","left","(148, 362)",56,1,505.247834806733,-127.141225619808," 1102.23",434,2,0,0
"57",4,"right","SHINEd_Crayon_Green.jpg","incongruent","m",736.677232,"f","f","left","(862, 362)",63,1,717.059313687903,84.6702532613629,"  965.50",147,4,1,1
"57",5,"right","SHINEd_lime.jpg","congruent","n",867.956716,"j","j","right","(862, 362)",439,1,848.513772569074,216.124712142534," 4592.15",165,3,1,1
"57",6,"left","SHINEd_Banana.jpg","incongruent","n",NA,"miss","j","right","(148, 362)",376,0,NA,NA," 1471.60",119,2,0,0
"57",7,"right","SHINEd_Potato.jpg","congruent","n",669.866383,"j","j","right","(862, 362)",423,1,650.773389331415,18.3843289048747,"  893.64",222,3,1,1
"57",8,"right","SHINEd_Candleholder_LampShaped.jpg","incongruent","m",609.602252,"f","f","left","(862, 362)",111,1,590.684233212586,-41.7048272139547,"  709.99",436,2,0,0
"57",9,"right","SHINEd_Sand.jpg","congruent","n",NA,"miss","j","right","(862, 362)",279,0,NA,NA," 1093.90",313,3,1,1
"57",10,"left","SHINEd_chick hatch.jpg","incongruent","n",NA,"miss","j","right","(148, 362)",384,0,NA,NA," 1071.66",187,4,1,1
"57",11,"left","SHINEd_CanOpener.jpg","congruent","m",611.615739,"f","f","left","(148, 362)",160,1,593.222644856097,-39.166415570443," 1268.73",92,2,1,NA
"57",12,"left","SHINEd_lorises.jpg","incongruent","n",614.337004,"j","j","right","(148, 362)",428,1,596.118884737268,-36.2701756892724," 1976.96",27,3,1,1
"57",13,"left","SHINEd_GasStation.jpg","congruent","m",585.985639,"f","f","left","(148, 362)",168,1,567.942494618438,-64.4465658081019," 1731.97",275,4,1,1
"57",14,"right","SHINEd_MannequinBust.jpg","incongruent","m",629.729127,"f","f","left","(862, 362)",103,1,611.860957499609,-20.5281029269313,"  932.98",160,3,1,1
"57",15,"right","SHINEd_dates_fresh.jpg","congruent","n",713.28792,"j","j","right","(862, 362)",319,1,695.59472538078,63.2056649542393," 2318.54",70,2,1,NA
"57",16,"left","SHINEd_ant.jpg","incongruent","n",733.032443,"j","j","right","(148, 362)",328,1,715.51422326195,83.1251628354099," 5630.52",25,4,1,1
"57",17,"left","SHINEd_EspressoMachine.jpg","congruent","m",529.597791,"f","f","left","(148, 362)",156,1,512.254546143121,-120.134514283419," 2733.32",87,3,1,1
"57",18,"left","SHINEd_papaya.jpg","incongruent","n",613.010087,"j","j","right","(148, 362)",292,1,595.841817024291,-36.5472434022489," 2550.16",135,2,0,0
"57",19,"left","SHINEd_Hand.jpg","incongruent","n",567.095479,"f","j","right","(148, 362)",284,0,550.102183905462,-82.2868765210784," 3189.14",44,4,1,1
"57",20,"left","SHINEd_alarm.jpg","congruent","m",NA,"miss","f","left","(148, 362)",96,0,NA,NA," 2453.42",40,2,0,0
"57",21,"left","SHINEd_Boar.jpg","incongruent","n",543.655513,"j","j","right","(148, 362)",264,1,527.012167667803,-105.376892758737,"  933.21",265,2,0,0
"57",22,"right","SHINEd_KiddiePool.jpg","incongruent","m",NA,"miss","f","left","(862, 362)",87,0,NA,NA," 1063.21",316,3,1,1
"57",23,"left","SHINEd_Outhouse.jpg","congruent","m",711.840386,"f","f","left","(148, 362)",164,1,695.546990430144,63.1579300036039,"  663.16",425,2,0,0
"57",24,"right","SHINEd_Stroller.jpg","incongruent","m",530.721373,"f","f","left","(862, 362)",55,1,514.602952311315,-117.786108115225," 1621.28",118,2,1,NA
"57",25,"right","SHINEd_penguin.jpg","congruent","n",542.199039,"j","j","right","(862, 362)",307,1,526.255593192485,-106.133467234055," 1192.87",52,4,1,1
"57",26,"right","SHINEd_Cable_AudioSplitter.jpg","incongruent","m",675.224956,"f","f","left","(862, 362)",91,1,659.456485073656,27.0674246471157," 1726.99",277,3,1,1
"57",27,"right","SHINEd_pine-cone-.jpg","congruent","n",589.857137,"j","j","right","(862, 362)",399,1,574.263640954827,-58.1254194717137,"  872.72",281,3,1,1
"57",28,"left","SHINEd_Bottle_Bleach.jpg","congruent","m",673.471435,"f","f","left","(148, 362)",212,1,658.052913835997,25.6638534094569," 1959.01",18,3,1,1
"57",29,"right","SHINEd_Bed_Hospital.jpg","incongruent","m",691.423482,"f","f","left","(862, 362)",207,1,676.179935717168,43.7908752906275,"  660.91",410,2,0,0
"57",30,"left","SHINEd_ScannerShoplifting.jpg","congruent","m",632.270322,"f","f","left","(148, 362)",100,1,617.201750598338,-15.187309828202,"  645.56",239,1,0,0
"57",31,"left","SHINEd_anteater.jpg","incongruent","n",NA,"miss","j","right","(148, 362)",368,0,NA,NA," 3155.04",140,2,0,0
"57",32,"left","SHINEd_blueberries.jpg","incongruent","n",543.441835,"j","j","right","(148, 362)",232,1,528.723213360679,-103.665847065861,"  816.29",354,3,1,1
"57",33,"right","SHINEd_alligator.jpg","congruent","n",546.826426,"j","j","right","(862, 362)",355,1,532.28277924185,-100.10628118469," 1201.89",33,4,1,1
"57",34,"right","SHINEd_Cage_Bird.jpg","incongruent","m",592.121519,"f","f","left","(862, 362)",123,1,577.752847123021,-54.6362133035196,"  791.66",261,2,0,0
"57",35,"left","SHINEd_Shampoo.jpg","congruent","m",547.324113,"f","f","left","(148, 362)",120,1,533.130416004191,-99.2586444223491,"  573.62",238,2,0,0
"57",36,"left","SHINEd_Pepper_Chili.jpg","incongruent","n",615.10188,"j","j","right","(148, 362)",240,1,601.083157885362,-31.3059025411784,"  710.37",252,4,1,1
"57",37,"left","SHINEd_Bib.jpg","congruent","m",690.827073,"f","f","left","(148, 362)",136,1,676.983325766532,44.5942653399921," 1116.29",395,3,1,1
"57",38,"right","SHINEd_MousepadAndMouse.jpg","incongruent","m",692.84512,"f","f","left","(862, 362)",99,1,679.176347647703,46.7872872211626,"  983.72",65,4,1,1
"57",39,"left","SHINEd_Key_Car.jpg","congruent","m",561.712896,"f","f","left","(148, 362)",176,1,548.219098528873,-84.1699618976667,"  869.06",198,2,1,NA
"57",40,"right","SHINEd_Harp.jpg","incongruent","m",788.108169,"f","f","left","(862, 362)",11,1,774.789346410044,142.400285983504," 2318.53",121,3,1,1
"57",41,"left","SHINEd_FireExtinguisher.jpg","congruent","m",649.936694,"f","f","left","(148, 362)",112,1,636.792846291215,4.40378586467441," 8474.16",241,2,0,0
"57",42,"left","SHINEd_Sheep.jpg","incongruent","n",733.780038,"j","j","right","(148, 362)",300,1,720.811165172385,88.422104745845,"  959.10",307,2,0,0
"57",43,"right","SHINEd_almond.jpg","congruent","n",777.177879,"j","j","right","(862, 362)",311,1,764.383981053556,131.994920627016," 1020.77",97,4,1,1
"57",44,"right","SHINEd_Toolbox_RedOpen.jpg","incongruent","m",651.557234,"f","f","left","(862, 362)",39,1,638.938310934726,6.54925050818616," 2661.63",17,3,1,1
"57",45,"left","SHINEd_vulture.jpg","incongruent","n",552.099324,"j","j","right","(148, 362)",436,1,539.655375815897,-92.7336846106432," 1079.37",170,4,1,1
"57",46,"left","SHINEd_Clothespin_Red.jpg","congruent","m",691.348419,"f","f","left","(148, 362)",60,1,679.079445697068,46.6903852705274," 1192.82",125,4,1,1
"57",47,"right","SHINEd_Box_Staples.jpg","incongruent","m",703.099889,"f","f","left","(862, 362)",67,1,691.005890578238,58.6168301516979,"  678.65",406,2,0,0
"57",48,"right","SHINEd_firetruck.jpg","incongruent","m",649.878828,"f","f","left","(862, 362)",179,1,637.959804459409,5.57074403286848,"  726.97",415,2,0,0
"57",49,"right","SHINEd_beluga.jpg","congruent","n",653.145634,"j","j","right","(862, 362)",431,1,641.401585340579,9.01252491403904," 1150.29",86,4,1,1
"57",50,"right","SHINEd_CapGraduation.jpg","incongruent","m",753.273342,"f","f","left","(862, 362)",187,1,741.70426822175,109.31520779521," 1447.01",193,2,0,0
"57",51,"left","SHINEd_Garbage_GreenBin.jpg","congruent","m",590.068497,"f","f","left","(148, 362)",144,1,578.67439810292,-53.7146623236198," 1340.95",30,4,1,1
"57",52,"right","SHINEd_Cauliflower.jpg","congruent","n",729.712539,"j","j","right","(862, 362)",291,1,718.493414984091,86.1043545575508,"  756.80",280,2,0,0
"57",53,"right","SHINEd_Bowtie.jpg","incongruent","m",629.277248,"f","f","left","(862, 362)",191,1,618.233098865262,-14.1559615612786,"  846.18",251,3,1,1
"57",54,"right","SHINEd_sanddollar.jpg","congruent","n",946.237519,"f","j","right","(862, 362)",295,0,935.368344746432,302.979284319892,"  767.16",404,3,1,1
"57",55,"left","SHINEd_Lobster.jpg","incongruent","n",676.457064,"j","j","right","(148, 362)",288,1,665.762864627603,33.3738042010625," 2669.70",28,3,1,1
"57",56,"left","SHINEd_mint.jpg","incongruent","n",641.539574,"j","j","right","(148, 362)",360,1,631.020349508773,-1.36871091776686," 1165.98",305,3,1,1
"57",57,"right","SHINEd_Hedgehog.jpg","congruent","n",651.882355,"j","j","right","(862, 362)",243,1,641.538105389944,9.14904496340367,"  758.28",408,2,0,0
"57",58,"right","SHINEd_MalletJudge.jpg","incongruent","m",544.690193,"f","f","left","(862, 362)",35,1,534.520918271115,-97.8681421554257," 1312.36",64,4,1,1
"57",59,"right","SHINEd_clementine.jpg","congruent","n",628.01025,"j","j","right","(862, 362)",359,1,618.015950152285,-14.3731102742551," 1117.99",262,4,1,1
"57",60,"right","SHINEd_Basket_Plastic.jpg","incongruent","m",726.091349,"f","f","left","(862, 362)",211,1,716.272024033456,83.8829636069155," 3253.13",366,3,1,1
"57",61,"right","SHINEd_Dresser.jpg","incongruent","m",568.93876,"f","f","left","(862, 362)",203,1,559.294409914626,-73.094650511914," 5014.74",35,3,1,1
"57",62,"left","SHINEd_Cassette_Audio.jpg","congruent","m",605.688139,"f","f","left","(148, 362)",148,1,596.218763795797,-36.1702966307434," 1654.32",84,3,1,1
"57",63,"left","SHINEd_maggotts.jpg","incongruent","n",NA,"miss","j","right","(148, 362)",392,0,NA,NA," 1096.49",133,4,1,1
"57",64,"right","SHINEd_Seal_animal.jpg","congruent","n",556.140579,"j","j","right","(862, 362)",379,1,547.021153558138,-85.3679068684022," 1184.25",258,2,0,0
"57",65,"left","SHINEd_Squash_Butternut.jpg","incongruent","n",823.875222,"j","j","right","(148, 362)",444,1,814.930771439309,182.541711012768," 2572.44",102,2,0,0
"57",66,"right","SHINEd_Shark_GreatWhite.jpg","congruent","n",658.082323,"j","j","right","(862, 362)",287,1,649.312847320479,16.9237868939389," 1120.09",157,3,1,1
"57",67,"left","SHINEd_Cow.jpg","incongruent","n",670.777954,"j","j","right","(148, 362)",320,1,662.18345320165,29.7943927751095," 1154.08",120,3,1,1
"57",68,"right","SHINEd_FloppyDisk.jpg","incongruent","m",625.075804,"f","f","left","(862, 362)",147,1,616.65627808282,-15.73278234372," 1685.64",226,3,1,1
"57",69,"right","SHINEd_edamame.jpg","congruent","n",613.317261,"j","j","right","(862, 362)",303,1,605.072709963991,-27.3163504625493,"  856.73",335,3,1,1
"57",70,"left","SHINEd_beetle.jpg","incongruent","n",600.033503,"j","j","right","(148, 362)",356,1,591.963926845161,-40.4251335813788," 1150.00",175,3,1,1
"57",71,"right","SHINEd_Hippopotamus.jpg","congruent","n",499.750976,"j","j","right","(862, 362)",367,1,491.856374726332,-140.532685700208,"  679.47",380,2,0,0
"57",72,"left","SHINEd_gazelle.jpg","incongruent","n",656.075761,"j","j","right","(148, 362)",268,1,648.356134607503,15.9670741809625,"  959.17",428,2,0,0
"57",73,"left","SHINEd_seatAirplane.jpg","congruent","m",755.054204,"f","f","left","(148, 362)",172,1,747.509552488673,115.120492062133,"  694.48",303,2,0,0
"57",74,"left","SHINEd_Kangaroo.jpg","incongruent","n",606.046848,"j","j","right","(148, 362)",312,1,598.677171369844,-33.7118890566965," 1294.06",57,4,1,1
"57",75,"right","SHINEd_white sesame.jpg","congruent","n",601.82032,"j","j","right","(862, 362)",371,1,594.625618251014,-37.7634421755258,"  678.99",382,3,1,1
"57",76,"left","SHINEd_Bag_Camera.jpg","congruent","m",693.920609,"f","f","left","(148, 362)",216,1,686.900882132185,54.5118217056447," 5503.11",1,4,1,1
"57",77,"left","SHINEd_Plum.jpg","incongruent","n",641.296975,"j","j","right","(148, 362)",244,1,634.452223013356,2.06316258681529," 6127.61",451,2,0,0
"57",78,"left","SHINEd_HedgeShears.jpg","congruent","m",564.828215,"f","f","left","(148, 362)",28,1,558.158437894526,-74.2306225320141,"  861.17",164,2,0,0
"57",79,"left","SHINEd_rhino.jpg","incongruent","n",NA,"miss","j","right","(148, 362)",352,0,NA,NA," 1223.76",168,3,1,1
"57",80,"right","SHINEd_OnionRed.jpg","congruent","n",623.825077,"j","j","right","(862, 362)",383,1,617.505249656867,-14.883810769673," 3270.45",23,3,1,1
"57",81,"right","SHINEd_Tractor_Orange.jpg","incongruent","m",570.997244,"f","f","left","(862, 362)",175,1,564.852391538038,-67.5366688885023,"  728.01",138,2,0,0
"57",82,"right","SHINEd_organutan.jpg","congruent","n",583.026554,"j","j","right","(862, 362)",343,1,577.056676419209,-55.3323840073317," 2513.36",68,3,1,1
"57",83,"left","SHINEd_Pig.jpg","incongruent","n",571.713933,"j","j","right","(148, 362)",424,1,565.919030300379,-66.4700301261612," 1696.60",73,3,1,1
"57",84,"left","SHINEd_Fan_Ceiling.jpg","congruent","m",806.672127,"f","f","left","(148, 362)",48,1,801.05219918155,168.663138755009," 2328.07",244,4,1,1
"57",85,"right","SHINEd_Bat_Baseball.jpg","incongruent","m",610.382491,"f","f","left","(862, 362)",127,1,604.93753806272,-27.4515223638201,"  846.58",177,3,1,1
"57",86,"right","SHINEd_Seashell_RoseMurex.jpg","congruent","n",773.612578,"j","j","right","(862, 362)",327,1,768.342599943891,135.953539517351," 1821.41",317,3,1,1
"57",87,"left","SHINEd_Golf_Club.jpg","congruent","m",496.740167,"f","f","left","(148, 362)",132,1,491.645163825061,-140.743896601479," 1116.51",297,3,1,1
"57",88,"right","SHINEd_Car_Sedan.jpg","incongruent","m",604.697702,"f","f","left","(862, 362)",183,1,599.777673706232,-32.6113867203083,"  711.73",298,2,0,0
"57",89,"left","SHINEd_Exercise_Bike.jpg","congruent","m",496.11209,"f","f","left","(148, 362)",24,1,491.367036587403,-141.022023839138,"  795.71",320,2,0,0
"57",90,"left","SHINEd_Pepper_Green.jpg","incongruent","n",531.200615,"j","j","right","(148, 362)",372,1,526.630536468573,-105.758523957967,"  914.20",115,4,1,1
"57",91,"right","SHINEd_DryRack_Dishes.jpg","incongruent","m",486.144564,"f","f","left","(862, 362)",135,1,481.749460349744,-150.639600076797,"  833.21",269,4,1,1
"57",92,"left","SHINEd_DrainPlug.jpg","congruent","m",546.448061,"f","f","left","(148, 362)",140,1,542.227932230914,-90.1611281956259,"  711.04",373,2,0,0
"57",93,"left","SHINEd_Scorpion.jpg","incongruent","n",653.254015,"j","j","right","(148, 362)",396,1,649.208861112085,16.8198006855446,"  867.48",443,2,0,0
"57",94,"left","SHINEd_ornament.jpg","congruent","m",649.404493,"f","f","left","(148, 362)",224,1,645.534313993255,13.1452535667152," 3972.52",47,3,1,1
"57",95,"right","SHINEd_Bus_School.jpg","incongruent","m",548.200662,"f","f","left","(862, 362)",171,1,544.505457874426,-87.8836025521143," 1181.04",190,2,1,NA
"57",96,"right","SHINEd_Binoculars.jpg","incongruent","m",561.477598,"f","f","left","(862, 362)",199,1,557.957368755597,-74.4316916709437,"  838.57",172,2,0,0
"57",97,"right","SHINEd_Caribou.jpg","congruent","n",587.900339,"j","j","right","(862, 362)",435,1,584.555084636767,-47.833975789773," 1422.56",179,3,1,1
"57",98,"left","SHINEd_alpaca_fo.jpg","incongruent","n",512.442636,"j","j","right","(148, 362)",400,1,509.272356517938,-123.116703908603,"  734.51",377,2,0,0
"57",99,"left","SHINEd_Oneholepunch.jpg","congruent","m",523.590019,"f","f","left","(148, 362)",76,1,520.594714399108,-111.794346027432," 1301.93",77,4,1,1
"57",100,"right","SHINEd_ashtray.jpg","incongruent","m",543.552068,"f","f","left","(862, 362)",227,1,540.731738280279,-91.6573221462614,"  912.70",264,2,0,0
"57",101,"left","SHINEd_PassionFruit.jpg","incongruent","n",NA,"miss","j","right","(148, 362)",452,0,NA,NA,"  741.77",393,2,0,0
"57",102,"right","SHINEd_elbow.jpg","congruent","n",NA,"miss","j","right","(862, 362)",263,0,NA,NA," 3437.04",453,2,0,0
"57",103,"right","SHINEd_Microwave.jpg","incongruent","m",553.421734,"f","f","left","(862, 362)",155,1,551.126328923791,-81.2627315027496," 1718.99",106,3,1,1
"57",104,"left","SHINEd_Ball_Football.jpg","congruent","m",628.450848,"f","f","left","(148, 362)",128,1,626.330417804961,-6.05864262157906," 1675.49",139,2,1,NA
"57",105,"left","SHINEd_Earrings_Dangling.jpg","congruent","m",784.311444,"f","f","left","(148, 362)",196,1,782.365988686132,149.976928259592," 1860.94",284,4,1,1
"57",106,"right","SHINEd_LightBulb_White.jpg","incongruent","m",530.74511,"f","f","left","(862, 362)",47,1,528.974629567302,-103.414430859238,"  782.46",400,3,1,1
"57",107,"right","SHINEd_goldfish.jpg","congruent","n",655.041178,"j","j","right","(862, 362)",275,1,653.445672448473,21.0566120219327,"  685.59",376,2,0,0
"57",108,"right","SHINEd_Oars.jpg","incongruent","m",633.728095,"f","f","left","(862, 362)",19,1,632.307564329644,-0.0814960968966396," 1984.38",266,2,0,0
"57",109,"right","SHINEd_Fish_Swordfish.jpg","congruent","n",669.189846,"j","j","right","(862, 362)",331,1,667.944290210814,35.5552297842739," 1371.52",114,2,0,0
"57",110,"right","SHINEd_PaperCutter.jpg","incongruent","m",664.701699,"f","f","left","(862, 362)",31,1,663.631118091985,31.2420576654444," 1655.65",103,2,0,0
"57",111,"left","SHINEd_Guitar_Acoustic.jpg","congruent","m",516.916241,"f","f","left","(148, 362)",12,1,516.020634973155,-116.368425453385," 1286.36",389,2,1,NA
"57",112,"left","SHINEd_eggs.jpg","incongruent","n",801.194682,"f","j","right","(148, 362)",296,0,800.474050854326,168.084990427786," 1044.25",427,2,0,0
"57",113,"right","SHINEd_Swan.jpg","congruent","n",771.295087,"j","j","right","(862, 362)",443,1,770.749430735496,138.360370308956," 1890.38",14,4,1,1
"57",114,"right","SHINEd_Iguana.jpg","congruent","n",615.569404,"j","j","right","(862, 362)",387,1,615.198722616667,-17.1903378098732,"  846.98",202,2,1,NA
"57",115,"left","SHINEd_Ginger.jpg","incongruent","n",NA,"miss","j","right","(148, 362)",236,0,NA,NA," 1097.15",260,3,1,1
"57",116,"right","SHINEd_Seahorse.jpg","congruent","n",NA,"miss","j","right","(862, 362)",347,0,NA,NA," 2152.09",199,3,1,1
"57",117,"right","SHINEd_Cup_Bathroom.jpg","incongruent","m",536.594279,"f","f","left","(862, 362)",51,1,536.748522260179,-95.6405381663615,"  620.44",386,2,0,0
"57",118,"right","SHINEd_Ferret.jpg","congruent","n",627.99392,"j","j","right","(862, 362)",239,1,628.323138141349,-4.06592228519088," 1058.70",213,2,0,0
"57",119,"left","SHINEd_Camel_Bactrian.jpg","incongruent","n",553.152341,"j","j","right","(148, 362)",344,1,553.65653402252,-78.7325264040203," 1838.08",345,2,0,0
"57",120,"right","SHINEd_zebra.jpg","congruent","n",531.320315,"j","j","right","(862, 362)",447,1,531.999482903691,-100.38957752285,"  919.04",16,4,1,1
"57",121,"right","SHINEd_Fence_Wooden.jpg","incongruent","m",670.537801,"f","f","left","(862, 362)",163,1,671.391943784861,39.0028833583208,"  539.41",440,2,0,0
"57",122,"left","SHINEd_Tie.jpg","congruent","m",634.39883,"f","f","left","(148, 362)",192,1,635.427947666032,3.03888723949141," 1293.82",357,2,1,NA
"57",123,"right","SHINEd_Playard.jpg","incongruent","m",477.69235,"f","f","left","(862, 362)",59,1,478.896442547202,-153.492617879338,"  781.30",402,2,0,0
"57",124,"left","SHINEd_tapir copy.jpg","incongruent","n",360.94475,"f","j","right","(148, 362)",408,0,362.323817428373,-270.065242998167,"  663.12",355,2,0,0
"57",125,"left","SHINEd_Button.jpg","congruent","m",925.252413,"f","f","left","(148, 362)",4,1,926.806455309543,294.417394883003," 1733.53",131,2,1,NA
"57",126,"left","SHINEd_Lettuce_GreenLeaf.jpg","incongruent","n",777.436757,"j","j","right","(148, 362)",248,1,779.165774190714,146.776713764174," 1428.88",418,2,0,0
"57",127,"right","SHINEd_Eggplant.jpg","congruent","n",612.957119,"j","j","right","(862, 362)",267,1,614.861111071885,-17.5279493546556," 2707.71",7,3,1,1
"57",128,"left","SHINEd_raspberry.jpg","incongruent","n",551.106333,"j","j","right","(148, 362)",456,1,553.185299953055,-79.2037604734851,"  694.93",411,3,1,1
"57",129,"left","SHINEd_Dart.jpg","congruent","m",771.424556,"f","f","left","(148, 362)",20,1,773.678497834226,141.289437407686,"  656.31",392,2,0,0
"57",130,"right","SHINEd_CDstack.jpg","incongruent","m",598.965869,"f","f","left","(862, 362)",15,1,601.394785715396,-30.9942747111439,"  589.51",349,2,0,0
"57",131,"right","SHINEd_Crab.jpg","congruent","n",699.07615,"j","j","right","(862, 362)",259,1,701.680041596567,69.2909811700266," 1475.84",360,3,1,1
"57",132,"right","SHINEd_alfalfa.jpg","congruent","n",660.876278,"j","j","right","(862, 362)",283,1,663.655144477737,31.2660840511972," 1261.45",257,3,1,1
"57",133,"left","SHINEd_housefly.jpg","incongruent","n",568.197925,"j","j","right","(148, 362)",420,1,571.151766358908,-61.2372940676321,"  873.41",388,2,0,0
"57",134,"left","SHINEd_CompassCardinal.jpg","congruent","m",547.389597,"f","f","left","(148, 362)",40,1,550.518413240079,-81.8706471864616," 2094.34",20,2,0,0
"57",135,"right","SHINEd_KitchenCloth.jpg","incongruent","m",680.050784,"f","f","left","(862, 362)",143,1,683.354575121249,50.965514694709,"  918.63",116,4,1,1
"57",136,"right","SHINEd_Staircase_Curving.jpg","incongruent","m",587.37533,"f","f","left","(862, 362)",115,1,590.85409600242,-41.5349644241205,"  973.14",414,3,1,1
"57",137,"right","SHINEd_Chimpanzee.jpg","congruent","n",686.367239,"j","j","right","(862, 362)",255,1,690.02097988359,57.6319194570502," 1664.72",184,3,1,1
"57",138,"right","SHINEd_tamarinds.jpg","congruent","n",721.495254,"j","j","right","(862, 362)",451,1,725.323969764761,92.9349093382208," 1248.61",141,3,1,1
"57",139,"left","SHINEd_blackberry.jpg","incongruent","n",565.416745,"j","j","right","(148, 362)",280,1,569.420435645932,-62.9686247806087," 1718.20",437,2,0,0
"57",140,"left","SHINEd_Light_Traffic.jpg","congruent","m",784.208384,"f","f","left","(148, 362)",180,1,788.387049527102,155.997989100562," 3088.21",110,4,1,1
"57",141,"right","SHINEd_birdie.jpg","incongruent","m",627.902826,"f","f","left","(862, 362)",131,1,632.256466408273,-0.132594018267534," 1184.38",166,3,1,1
"57",142,"right","SHINEd_Puffin.jpg","congruent","n",638.44378,"j","j","right","(862, 362)",231,1,642.972395289443,10.583334862903," 3985.83",8,3,1,1
"57",143,"right","SHINEd_Ship_Model.jpg","incongruent","m",555.615922,"f","f","left","(862, 362)",83,1,560.319512170614,-72.0695482559264,"  706.82",214,2,0,0
"57",144,"right","SHINEd_tree.jpg","congruent","n",630.327232,"j","j","right","(862, 362)",375,1,635.205797051784,2.81673662524418," 3120.41",81,4,1,1
"57",145,"left","SHINEd_SpiderWeb.jpg","incongruent","n",930.199367,"j","j","right","(148, 362)",348,1,935.252906932955,302.863846506415,"  768.09",182,4,1,1
"57",146,"left","SHINEd_Cucumber.jpg","incongruent","n",614.621497,"j","j","right","(148, 362)",364,1,619.850011814126,-12.5390486124147," 2646.41",324,3,1,1
"57",147,"right","SHINEd_Panda.jpg","congruent","n",969.237266,"j","j","right","(862, 362)",251,1,974.640755695296,342.251695268756," 2376.11",210,3,1,1
"57",148,"right","SHINEd_Barbecue_Gas.jpg","incongruent","m",620.092685,"f","f","left","(862, 362)",159,1,625.671149576467,-6.71791085007352," 1352.02",229,3,1,1
"57",149,"left","SHINEd_Boombox.jpg","congruent","m",809.708426,"f","f","left","(148, 362)",92,1,815.461865457637,183.072805031097," 1664.22",85,2,0,0
"57",150,"right","SHINEd_Olives.jpg","congruent","n",516.251078,"j","j","right","(862, 362)",419,1,522.179492338808,-110.209568087732," 2198.75",270,3,1,1
"57",151,"right","SHINEd_feather.jpg","congruent","n",728.805303,"j","j","right","(862, 362)",415,1,734.908692219979,102.519631793438,"  790.64",150,4,1,1
"57",152,"left","SHINEd_Pear_Yellow.jpg","incongruent","n",603.550234,"j","j","right","(148, 362)",416,1,609.828598101149,-22.5604623253911,"  950.97",211,3,1,1
"57",153,"right","SHINEd_paddle ball.jpg","incongruent","m",678.556173,"f","f","left","(862, 362)",27,1,685.00951198232,52.6204515557794," 1480.78",15,4,1,1
"57",154,"right","SHINEd_Flower_Daisy.jpg","congruent","n",729.843154,"j","j","right","(862, 362)",351,1,736.47146786349,104.08240743695," 1183.95",195,4,1,1
"57",155,"right","SHINEd_turkey.jpg","congruent","n",534.050534,"j","j","right","(862, 362)",391,1,540.853822744661,-91.5352376818795," 1709.34",34,4,1,1
"57",156,"right","SHINEd_mapleleaf.jpg","congruent","n",906.334413,"j","j","right","(862, 362)",335,1,913.312676625832,280.923616199291," 2671.84",3,4,1,1
"57",157,"right","SHINEd_Box_GiftTopView.jpg","incongruent","m",684.104415,"f","f","left","(862, 362)",219,1,691.257653507002,58.8685930804618," 1904.25",90,4,1,1
"57",158,"right","SHINEd_Dress_Blue.jpg","incongruent","m",560.261126,"f","f","left","(862, 362)",3,1,567.589339388173,-64.7997210383677,"  718.27",326,4,1,1
"57",159,"left","SHINEd_Glasses_Reading.jpg","congruent","m",579.143301,"f","f","left","(148, 362)",200,1,586.646489269343,-45.7425711571971,"  909.01",397,3,1,1
"57",160,"left","SHINEd_Blackboard.jpg","congruent","m",582.663899,"f","f","left","(148, 362)",72,1,590.342062150514,-42.0469982760265,"  951.35",361,3,1,1
"57",161,"left","SHINEd_Lion.jpg","incongruent","n",746.326422,"j","j","right","(148, 362)",316,1,754.179560031684,121.790499605144," 1802.64",207,3,1,1
"57",162,"right","SHINEd_bat.jpg","congruent","n",693.408231,"j","j","right","(862, 362)",403,1,701.436343912855,69.0472834863147," 2063.30",201,2,1,NA
"57",163,"right","SHINEd_Bandage_Adhesive.jpg","incongruent","m",NA,"miss","f","left","(862, 362)",107,0,NA,NA,"  558.60",300,2,0,0
"57",164,"left","SHINEd_RibbonSpool.jpg","congruent","m",956.864941,"f","f","left","(148, 362)",80,1,965.243003675196,332.853943248656,"  585.71",250,2,0,0
"57",165,"left","SHINEd_fig.jpg","incongruent","n",586.896526,"j","j","right","(148, 362)",412,1,595.449563556367,-36.9394968701736,"  861.02",124,3,1,1
"57",166,"right","SHINEd_WateringCan_PlasticDarkGreen.jpg","incongruent","m",564.862663,"f","f","left","(862, 362)",215,1,573.590675437537,-58.798384989003,"  820.87",282,2,0,0
"57",167,"right","SHINEd_Owl.jpg","congruent","n",530.808069,"j","j","right","(862, 362)",407,1,539.711056318708,-92.6780041078324," 1301.15",192,2,1,NA
"57",168,"left","SHINEd_Clam.jpg","incongruent","n",884.916258,"j","j","right","(148, 362)",340,1,893.994220199878,261.605159773338," 1021.37",104,4,1,1
"57",169,"left","SHINEd_LifeJacket_BlueYellow.jpg","congruent","m",705.041296,"f","f","left","(148, 362)",16,1,714.294233081049,81.9051726545087," 2149.04",208,2,0,0
"57",170,"left","SHINEd_Card_TwoSpade.jpg","congruent","m",787.870434,"f","f","left","(148, 362)",88,1,797.29834596222,164.909285535679,"  925.39",351,4,1,1
"57",171,"left","SHINEd_Hammock.jpg","congruent","m",720.794369,"f","f","left","(148, 362)",208,1,730.39725584339,98.0081954168498," 1284.39",148,4,1,1
"57",172,"right","SHINEd_SpongeScrubbing.jpg","incongruent","m",900.2768,"j","f","left","(862, 362)",139,0,910.054661724561,277.66560129802," 1644.59",162,4,1,1
"57",173,"right","SHINEd_aloe.jpg","congruent","n",607.328837,"j","j","right","(862, 362)",299,1,617.281673605731,-15.1073868208089," 3220.73",398,3,1,1
"57",174,"left","SHINEd_sloth.jpg","incongruent","n",NA,"miss","j","right","(148, 362)",304,0,NA,NA,"  950.18",339,2,0,0
"57",175,"left","SHINEd_SnowGlobe.jpg","congruent","m",541.89171,"f","f","left","(148, 362)",84,1,552.194496368072,-80.1945640584678," 2511.01",49,4,1,1
"57",176,"right","SHINEd_sunflowers.jpg","congruent","n",647.783557,"j","j","right","(862, 362)",395,1,658.261318249243,25.8722578227027,"  741.46",371,3,1,1
"57",177,"left","SHINEd_Hazelnut.jpg","incongruent","n",587.755955,"j","j","right","(148, 362)",252,1,598.408691130414,-33.9803692961267," 1696.51",105,3,1,1
"57",178,"right","SHINEd_puffer-fish.jpg","congruent","n",534.934758,"j","j","right","(862, 362)",339,1,545.762469011584,-86.6265914149561," 1151.52",341,3,1,1
"57",179,"left","SHINEd_bullrush.jpg","incongruent","n",771.673424,"j","j","right","(148, 362)",324,1,782.676109892755,150.287049466214," 3463.94",158,3,1,1
"57",180,"left","SHINEd_DoubleBass.jpg","congruent","m",663.470423,"f","f","left","(148, 362)",8,1,674.648083773925,42.2590233473851,"11551.06",56,2,0,0
"57",181,"right","SHINEd_moth.jpg","congruent","n",633.774855,"j","j","right","(862, 362)",427,1,645.127490655096,12.7384302285557," 3975.50",43,2,1,NA
"57",182,"right","SHINEd_whistle.jpg","incongruent","m",494.6276,"f","f","left","(862, 362)",79,1,506.155210536267,-126.233849890274,"  604.19",322,1,0,0
"57",183,"left","SHINEd_SpinningWheel.jpg","congruent","m",538.384565,"f","f","left","(148, 362)",124,1,550.087150417437,-82.3019100091032," 1516.57",286,2,0,0
"57",184,"left","SHINEd_Squid_Pink.jpg","incongruent","n",733.089189,"f","j","right","(148, 362)",336,0,744.966749298608,112.577688872067," 1696.51",352,3,1,1
"57",185,"right","SHINEd_Nuts_Peanuts.jpg","congruent","n",NA,"miss","j","right","(862, 362)",235,0,NA,NA," 1264.39",236,3,1,1
"57",186,"right","SHINEd_Razor.jpg","incongruent","m",606.5054,"f","f","left","(862, 362)",119,1,618.732910060949,-13.6561503655914," 5886.48",205,2,0,0
"57",187,"right","SHINEd_pistachios-.jpg","congruent","n",504.192104,"j","j","right","(862, 362)",411,1,516.594588942119,-115.794471484421,"  756.97",254,4,1,1
"57",188,"left","SHINEd_TigerWhite.jpg","incongruent","n",532.450625,"j","j","right","(148, 362)",440,1,545.02808482329,-87.3609756032503," 1525.59",314,2,0,0
"57",189,"right","SHINEd_KeyHook_Empty.jpg","incongruent","m",NA,"miss","f","left","(862, 362)",223,0,NA,NA," 4910.28",156,2,0,0
"57",190,"left","SHINEd_Fridge.jpg","congruent","m",515.300146,"f","f","left","(148, 362)",44,1,528.227555585631,-104.161504840909," 1398.93",151,3,1,1
"57",191,"right","SHINEd_Stingray.jpg","congruent","n",614.885156,"j","j","right","(862, 362)",315,1,627.987540466802,-4.40151995973847," 1791.04",93,4,1,1
"57",192,"left","SHINEd_Cougar.jpg","incongruent","n",523.27705,"j","j","right","(148, 362)",276,1,536.554409347972,-95.8346510785679," 1006.77",142,4,1,1
"57",193,"right","SHINEd_LetterMail.jpg","incongruent","m",670.723857,"f","f","left","(862, 362)",75,1,684.176191229143,51.7871308026026," 1142.99",304,3,1,1
"57",194,"left","SHINEd_Lighter_Yellow.jpg","congruent","m",529.161515,"f","f","left","(148, 362)",104,1,542.788824110313,-89.6002363162268,"  852.07",292,4,1,1
"57",195,"right","SHINEd_Light_Siren.jpg","incongruent","m",509.752712,"f","f","left","(862, 362)",95,1,523.554995991484,-108.834064435056," 2991.78",13,4,1,1
"57",196,"left","SHINEd_Lock_Combination.jpg","congruent","m",439.596609,"f","f","left","(148, 362)",64,1,453.573867872655,-178.815192553886," 4262.17",240,3,1,1
"57",197,"right","SHINEd_tooth.jpg","congruent","n",636.793703,"j","j","right","(862, 362)",363,1,650.945936753825,18.556876327285," 1366.28",29,4,1,1
"57",198,"left","SHINEd_Hat_Explorer.jpg","congruent","m",806.983163,"f","f","left","(148, 362)",188,1,821.310371634996,188.921311208456,"  871.05",159,3,1,1
"57",199,"left","SHINEd_Dill.jpg","incongruent","n",595.538572,"j","j","right","(148, 362)",256,1,610.040755516166,-22.3483049103738," 2485.86",323,2,0,0
"57",200,"right","SHINEd_bear.jpg","congruent","n",565.939327,"j","j","right","(862, 362)",271,1,580.616485397337,-51.7725750292032,"  836.98",423,2,0,0
"57",201,"left","SHINEd_BookShelf.jpg","congruent","m",610.287508,"f","f","left","(148, 362)",204,1,625.139641278507,-7.24941914803272," 3622.83",127,2,1,NA
"57",202,"right","SHINEd_Stapler_Regular.jpg","incongruent","m",597.447312,"f","f","left","(862, 362)",43,1,612.474420159678,-19.9146402668621," 4092.25",378,2,0,0
"57",203,"left","SHINEd_Hammer.jpg","congruent","m",547.101419,"f","f","left","(148, 362)",36,1,562.303502040849,-70.0855583856916," 1485.89",433,3,1,1
"57",204,"left","SHINEd_Boots_KneeHigh.jpg","congruent","m",654.381512,"f","f","left","(148, 362)",152,1,669.758569922019,37.3695094954791,"  701.65",364,2,0,0
"57",205,"left","SHINEd_groundhog.jpg","incongruent","n",640.933462,"j","j","right","(148, 362)",404,1,656.48549480319,24.0964343766496,"  909.06",435,3,1,1
"57",206,"left","SHINEd_HorseshoeCrab.jpg","incongruent","n",621.106119,"j","j","right","(148, 362)",260,1,636.83312668436,4.44406625782022,"  767.64",421,2,0,0
"57",207,"left","SHINEd_Bolt.jpg","congruent","m",528.011098,"f","f","left","(148, 362)",32,1,543.913080565531,-88.4759798610093," 3295.92",409,2,0,0
"57",208,"left","SHINEd_bee.jpg","incongruent","n",587.401415,"j","j","right","(148, 362)",380,1,603.478372446702,-28.9106879798386," 3790.09",54,2,0,0
"57",209,"left","SHINEd_Bird_CanadianGoose.jpg","incongruent","n",407.246139,"j","j","right","(148, 362)",388,1,423.498071327872,-208.890989098668," 1761.04",80,3,1,1
"57",210,"left","SHINEd_PencilCase.jpg","congruent","m",553.69377,"f","f","left","(148, 362)",68,1,570.120677209043,-62.2683832174975," 1237.06",445,2,0,0
"57",211,"left","SHINEd_CinderBlock.jpg","congruent","m",749.335392,"f","f","left","(148, 362)",108,1,765.937274090213,133.548213663673," 2600.03",368,2,0,0
"57",212,"right","SHINEd_Organ.jpg","incongruent","m",688.429025,"f","f","left","(862, 362)",7,1,705.205881971384,72.8168215448437,"  910.95",310,2,0,0
"57",213,"right","SHINEd_Shoes_Pumps.jpg","incongruent","m",748.084967,"f","f","left","(862, 362)",151,1,765.036798852555,132.647738426014," 2425.45",26,4,1,1
"57",214,"left","SHINEd_Box_Package.jpg","congruent","m",520.267842,"f","f","left","(148, 362)",220,1,537.394648733725,-94.9944116928152," 1607.88",19,4,1,1
"57",215,"left","SHINEd_CoffeeBeans.jpg","incongruent","n",547.855767,"j","j","right","(148, 362)",332,1,565.157548614896,-67.2315118116446," 1502.92",243,3,1,1
"57",216,"left","SHINEd_Celery.jpg","incongruent","n",615.150648,"j","j","right","(148, 362)",272,1,632.627404496066,0.238344069526038,"  774.28",169,4,1,1
"57",217,"left","SHINEd_Cologne.jpg","congruent","m",522.797383,"f","f","left","(148, 362)",116,1,540.449114377237,-91.9399460493035," 1037.27",263,4,1,1
"57",218,"right","SHINEd_Notepad.jpg","incongruent","m",542.5392,"f","f","left","(862, 362)",71,1,560.365906258407,-72.0231541681328," 1335.00",363,2,0,0
"57",219,"right","SHINEd_Belt.jpg","incongruent","m",546.054692,"f","f","left","(862, 362)",195,1,564.056373139578,-68.3326872869622," 1359.00",327,3,1,1
"57",220,"right","SHINEd_Peach.jpg","congruent","n",NA,"miss","j","right","(862, 362)",323,0,NA,NA," 1342.55",134,2,1,NA
"57",221,"left","SHINEd_Tape_Scotch.jpg","congruent","m",684.314645,"f","f","left","(148, 362)",228,1,702.666275901919,70.2772154753789,"  779.15",328,3,1,1
"57",222,"left","SHINEd_Bus_DoubleDecker.jpg","congruent","m",511.481921,"f","f","left","(148, 362)",184,1,530.00852678309,-102.380533643451," 1069.10",289,2,0,0
"57",223,"right","SHINEd_tentacle.jpg","congruent","n",538.909764,"j","j","right","(862, 362)",247,1,557.61134466426,-74.77771576228," 1087.29",107,4,1,1
"57",224,"left","SHINEd_Leaf_Green.jpg","incongruent","n",686.423147,"j","j","right","(148, 362)",448,1,705.299702545431,72.9106421188906,"  741.51",401,3,1,1
"57",225,"left","SHINEd_dove.jpg","incongruent","n",504.871099,"j","j","right","(148, 362)",308,1,523.922629426601,-108.466430999939," 7345.64",113,2,1,NA
"57",226,"right","SHINEd_Coral.jpg","congruent","n",676.405811,"j","j","right","(862, 362)",455,1,695.632316307772,63.2432558812318,"  799.59",149,4,1,1
"57",227,"right","SHINEd_FireHydrant.jpg","incongruent","m",625.868574,"f","f","left","(862, 362)",167,1,645.270054188943,12.8809937624023,"  924.35",432,3,1,1
"57",228,"right","SHINEd_Snowboard.jpg","incongruent","m",437.551106,"f","f","left","(862, 362)",23,1,457.127561070113,-175.261499356427,"  797.37",420,3,1,1
