"participant","trial_index","screenposition","stimulus","trialtype","classifyenc","rt","response","responsecorrect","responsecorrect_side","screenlocation","stimnum","acc","rtResidual","rtResidualC","rt_rec","trialno_rec","ratingConfidence","acc_rec","memoryHits.hc"
"58",1,"right","SHINEd_greenapple.jpg","incongruent","n",891.648879,"f","f","left","(862, 362)",410,1,862.927115123186,273.842781070088," 1565.94",68,3,0,0
"58",2,"left","SHINEd_cheetah.jpg","congruent","n",630.170414,"f","f","left","(148, 362)",245,1,601.701291645627,12.6169575925299," 2078.71",199,2,0,0
"58",3,"left","SHINEd_Giraffe.jpg","congruent","n",568.890965,"f","f","left","(148, 362)",381,1,540.674484168072,-48.4098498850258,"  769.65",236,4,1,1
"58",4,"right","SHINEd_raccoon.jpg","incongruent","n",494.352033,"f","f","left","(862, 362)",262,1,466.388193690516,-122.696140362582,"  992.44",26,4,1,1
"58",5,"right","SHINEd_airpump.jpg","congruent","m",449.084117,"j","j","right","(862, 362)",114,1,421.37291921296,-167.711414840137," 1117.33",102,1,0,0
"58",6,"right","SHINEd_BearPolar.jpg","incongruent","n",492.716273,"f","f","left","(862, 362)",386,1,465.257716735404,-123.826617317693," 1166.70",438,3,1,1
"58",7,"right","SHINEd_ClothCoaster.jpg","congruent","m",528.732128,"j","j","right","(862, 362)",142,1,501.526213257849,-87.5581207952488,"  886.88",222,4,1,1
"58",8,"left","SHINEd_Vase_Decorative copy.jpg","incongruent","m",507.959911,"j","j","right","(148, 362)",221,1,481.006637780293,-108.077696272805," 1657.79",403,4,1,1
"58",9,"right","SHINEd_accordion.jpg","congruent","m",537.292689,"j","j","right","(862, 362)",10,1,510.592057302737,-78.4922767503603,"  881.22",413,4,1,1
"58",10,"left","SHINEd_Camera_Video.jpg","incongruent","m",484.521521,"j","j","right","(148, 362)",97,1,458.073530825181,-131.010803227916," 4493.90",14,3,1,1
"58",11,"left","SHINEd_Knee.jpg","congruent","n",722.842035,"f","f","left","(148, 362)",309,1,696.646686347626,107.562352294528,"  895.10",265,4,1,1
"58",12,"left","SHINEd_Saw.jpg","incongruent","m",541.980957,"j","j","right","(148, 362)",33,1,516.03824987007,-73.0460841830274," 1001.39",80,4,1,1
"58",13,"left","SHINEd_whale.jpg","congruent","n",553.134241,"f","f","left","(148, 362)",421,1,527.444175392514,-61.6401586605832," 2909.01",263,4,1,1
"58",14,"right","SHINEd_Grape.jpg","incongruent","n",573.968399,"f","f","left","(862, 362)",274,1,548.530974914958,-40.5533591381389," 3081.05",41,2,1,NA
"58",15,"right","SHINEd_Nail.jpg","congruent","m",512.688558,"j","j","right","(862, 362)",38,1,487.503775437403,-101.580558615695,"  743.25",258,4,1,1
"58",16,"left","SHINEd_HairDryer.jpg","incongruent","m",603.772998,"j","j","right","(148, 362)",45,1,578.840856959847,-10.2434770932503," 2710.10",2,4,1,1
"58",17,"right","SHINEd_ChalkboardEraser.jpg","congruent","m",841.017978,"j","j","right","(862, 362)",62,1,816.338478482291,227.254144429194," 1731.17",144,4,1,1
"58",18,"right","SHINEd_Cherry.jpg","incongruent","n",629.070878,"f","f","left","(862, 362)",258,1,604.644020004735,15.5596859516382," 1079.99",392,3,1,1
"58",19,"right","SHINEd_Starfish.jpg","incongruent","n",474.258958,"f","f","left","(862, 362)",378,1,450.08474152718,-138.999592525918,"  774.29",251,4,1,1
"58",20,"left","SHINEd_artichoke.jpg","congruent","n",580.453104,"f","f","left","(148, 362)",453,1,556.531529049624,-32.5528050034732,"  854.53",168,4,1,1
"58",21,"left","SHINEd_BasketballHoop.jpg","incongruent","m",470.784354,"j","j","right","(148, 362)",129,1,447.115420572068,-141.968913481029," 1265.30",30,4,1,1
"58",22,"right","SHINEd_durian.jpg","incongruent","n",707.500898,"f","f","left","(862, 362)",374,1,684.084606094513,95.0002720414153," 1302.67",78,4,1,1
"58",23,"right","SHINEd_Ball_Bowling.jpg","congruent","m",799.96141,"j","j","right","(862, 362)",134,1,776.797759616957,187.71342556386," 1007.72",125,4,1,1
"58",24,"right","SHINEd_Lips_Real.jpg","incongruent","n",650.056049,"f","f","left","(862, 362)",390,1,627.145040139401,38.0607060863038,"  893.73",83,4,1,1
"58",25,"left","SHINEd_Broccoli.jpg","congruent","n",559.252179,"f","f","left","(148, 362)",253,1,536.593811661845,-52.490522391252," 1383.59",94,3,1,1
"58",26,"right","SHINEd_scallion.jpg","incongruent","n",643.074648,"f","f","left","(862, 362)",314,1,620.66892218429,31.5845881311924,"  751.23",242,4,1,1
"58",27,"left","SHINEd_Fish_Rockbass.jpg","congruent","n",576.322113,"f","f","left","(148, 362)",341,1,554.169028706734,-34.9153053463634," 1668.07",391,2,1,NA
"58",28,"left","SHINEd_Elephant.jpg","congruent","n",605.323985,"f","f","left","(148, 362)",349,1,583.423542229178,-5.66079182391912,"  879.52",131,4,1,1
"58",29,"right","SHINEd_rabbitt.jpg","incongruent","n",552.75105,"f","f","left","(862, 362)",350,1,531.103248751622,-57.9810853014749,"  822.12",349,4,1,1
"58",30,"right","SHINEd_Scooter.jpg","congruent","m",444.487569,"j","j","right","(862, 362)",174,1,423.092409274067,-165.991924779031," 1023.13",411,3,0,0
"58",31,"left","SHINEd_BicycleChain.jpg","incongruent","m",646.981774,"j","j","right","(148, 362)",17,1,625.839255796511,36.7549217434137," 1025.46",248,3,1,1
"58",32,"left","SHINEd_MusicSheet.jpg","incongruent","m",653.127521,"j","j","right","(148, 362)",13,1,632.237644318955,43.153310265858,"  788.13",304,4,1,1
"58",33,"left","SHINEd_pumpkinseeds-.jpg","congruent","n",640.346763,"f","f","left","(148, 362)",237,1,619.7095278414,30.6251937883023,"  909.62",450,4,1,1
"58",34,"left","SHINEd_Cannon.jpg","incongruent","m",518.163391,"j","j","right","(148, 362)",61,1,497.778797363844,-91.3055366892534," 1829.80",22,3,0,0
"58",35,"left","SHINEd_donkey.jpg","congruent","n",555.149327,"f","f","left","(148, 362)",409,1,535.017374886288,-54.0669591668092," 1230.59",426,4,1,1
"58",36,"left","SHINEd_FileDivider.jpg","incongruent","m",566.230359,"f","j","right","(148, 362)",69,0,546.351048408732,-42.7332856443649,"  799.36",316,4,1,1
"58",37,"left","SHINEd_rhino horn.jpg","congruent","n",719.887391,"f","f","left","(148, 362)",249,1,700.260721931177,111.176387878079," 1406.59",36,4,1,1
"58",38,"left","SHINEd_Magnifying_Glass.jpg","incongruent","m",483.625384,"j","j","right","(148, 362)",105,1,464.251356453621,-124.832977599476," 2709.02",285,2,0,0
"58",39,"left","SHINEd_Lilypad.jpg","congruent","n",552.512413,"f","f","left","(148, 362)",413,1,533.391026976065,-55.6933070770321," 1767.43",246,3,1,1
"58",40,"right","SHINEd_Bowl_Fruits.jpg","incongruent","n",692.445955,"f","f","left","(862, 362)",434,1,673.57721049851,84.4928764454122,"  912.11",399,4,1,1
"58",41,"right","SHINEd_Heater_Outdoor.jpg","congruent","m",658.301531,"j","j","right","(862, 362)",170,1,639.685428020954,50.6010939678564," 1047.16",402,4,1,1
"58",42,"right","SHINEd_treestump.jpg","incongruent","n",719.129133,"j","f","left","(862, 362)",414,0,700.765671543398,111.681337490301," 1165.11",207,4,1,1
"58",43,"left","SHINEd_Collards.jpg","congruent","n",857.623193,"f","f","left","(148, 362)",445,1,839.512373065842,250.428039012745," 2047.22",65,3,0,0
"58",44,"right","SHINEd_honeydew.jpg","incongruent","n",772.357935,"f","f","left","(862, 362)",330,1,754.499756588287,165.415422535189," 1992.82",123,4,1,1
"58",45,"left","SHINEd_Ruler_Wooden.jpg","incongruent","m",642.045204,"j","j","right","(148, 362)",73,1,624.439667110731,35.3553330576335,"  929.83",164,4,1,1
"58",46,"right","SHINEd_RollerBlade.jpg","congruent","m",621.183288,"j","j","right","(862, 362)",178,1,603.830392633175,14.7460585800777," 1639.08",415,1,0,0
"58",47,"right","SHINEd_hyena.jpg","incongruent","n",584.404396,"f","f","left","(862, 362)",422,1,567.304142155619,-21.7801918974779," 1340.59",454,3,0,0
"58",48,"right","SHINEd_avocado.jpg","incongruent","n",614.858454,"f","f","left","(862, 362)",394,1,598.010841678064,8.92650762496637," 1062.19",294,3,0,0
"58",49,"right","SHINEd_Kite_Rainbow.jpg","congruent","m",818.741,"j","j","right","(862, 362)",78,1,802.146029200508,213.061695147411," 1249.52",52,3,1,1
"58",50,"left","SHINEd_Escalator.jpg","incongruent","m",862.803869,"j","j","right","(148, 362)",177,1,846.461539722952,257.377205669855," 5477.84",303,2,1,NA
"58",51,"left","SHINEd_dinosaur fossil.jpg","congruent","n",NA,"miss","f","left","(148, 362)",377,0,NA,NA," 1036.84",406,4,1,1
"58",52,"right","SHINEd_Cheesegrater_Handheld.jpg","congruent","m",598.133911,"j","j","right","(862, 362)",162,1,582.296864767841,-6.78746928525659," 1586.79",197,1,0,0
"58",53,"right","SHINEd_Nuts_Pecan.jpg","incongruent","n",579.206784,"f","f","left","(862, 362)",246,1,563.622379290285,-25.4619547628124,"  813.59",296,4,1,1
"58",54,"right","SHINEd_Briefcase_Leather.jpg","congruent","m",846.268787,"j","j","right","(862, 362)",210,1,830.937023812729,241.852689759632,"  983.24",300,2,0,0
"58",55,"left","SHINEd_RecordPlayer.jpg","incongruent","m",627.301233,"f","j","right","(148, 362)",149,0,612.222111335174,23.1377772820762,"  806.79",422,4,1,1
"58",56,"right","SHINEd_Radish.jpg","incongruent","n",584.342966,"f","f","left","(862, 362)",242,1,569.516485857618,-19.5678481954795," 1973.86",367,3,1,1
"58",57,"left","SHINEd_Paw.jpg","congruent","n",604.315998,"f","f","left","(148, 362)",301,1,589.742159380062,0.657825326964797,"  949.74",113,4,1,1
"58",58,"left","SHINEd_Colander.jpg","incongruent","m",495.177692,"j","j","right","(148, 362)",41,1,480.856494902506,-108.227839150591," 2743.81",4,4,0,0
"58",59,"left","SHINEd_worm.jpg","congruent","n",748.999289,"f","f","left","(148, 362)",389,1,734.930733424951,145.846399371853,"  790.39",238,4,1,1
"58",60,"right","SHINEd_Lynx.jpg","incongruent","n",833.439055,"j","f","left","(862, 362)",438,0,819.623140947395,230.538806894298," 1288.23",119,4,1,1
"58",61,"left","SHINEd_ShoppingCart.jpg","incongruent","m",596.170027,"j","j","right","(148, 362)",109,1,582.606754469839,-6.47757958325815," 2322.02",139,2,1,NA
"58",62,"right","SHINEd_Mirror_Makeup.jpg","congruent","m",487.247969,"j","j","right","(862, 362)",122,1,473.937337992283,-115.146996060814," 1231.28",245,1,0,0
"58",63,"left","SHINEd_Gum_Pack.jpg","incongruent","m",660.453203,"j","j","right","(148, 362)",77,1,647.395213514728,58.3108794616304," 1069.68",191,4,1,1
"58",64,"right","SHINEd_Lipstick.jpg","congruent","m",639.158309,"j","j","right","(862, 362)",198,1,626.352961037172,37.2686269840747,"  940.56",221,4,1,1
"58",65,"right","SHINEd_fox.jpg","incongruent","n",515.418138,"f","f","left","(862, 362)",334,1,502.865431559616,-86.2189024934811," 1071.27",379,4,1,1
"58",66,"right","SHINEd_Slippers.jpg","congruent","m",808.537214,"j","j","right","(862, 362)",154,1,796.23714908206,207.152815028963," 1718.81",224,3,0,0
"58",67,"left","SHINEd_fountain.jpg","incongruent","m",555.811118,"j","j","right","(148, 362)",169,1,543.763694604505,-45.3206394485926,"  942.30",281,3,0,0
"58",68,"right","SHINEd_lotusroot.jpg","incongruent","n",650.144834,"f","f","left","(862, 362)",298,1,638.350052126949,49.2657180738517," 2333.94",81,4,1,1
"58",69,"right","SHINEd_Jacket_Suit.jpg","congruent","m",491.636473,"j","j","right","(862, 362)",2,1,480.094332649393,-108.990001403704,"  726.02",233,4,1,1
"58",70,"left","SHINEd_Desk_School.jpg","incongruent","m",502.413578,"j","j","right","(148, 362)",201,1,491.124079171838,-97.9602548812597," 1575.59",330,4,1,1
"58",71,"right","SHINEd_Hourglass.jpg","congruent","m",443.283904,"j","j","right","(862, 362)",110,1,432.247046694282,-156.837287358815,"  966.51",301,4,1,1
"58",72,"left","SHINEd_Gametable_AirHockey.jpg","incongruent","m",441.770919,"j","j","right","(148, 362)",85,1,430.986703216726,-158.097630836371," 1504.52",377,4,1,1
"58",73,"right","SHINEd_Box_Notepaper.jpg","congruent","m",670.655143,"j","j","right","(862, 362)",70,1,660.12356873917,71.0392346860731," 2103.12",210,1,0,0
"58",74,"right","SHINEd_Goat.jpg","incongruent","n",465.423516,"f","f","left","(862, 362)",322,1,455.144583261615,-133.939750791483," 1142.81",433,4,1,1
"58",75,"left","SHINEd_horse.jpg","congruent","n",407.473452,"f","f","left","(148, 362)",269,1,397.447160784059,-191.637173269038,"  785.96",110,4,1,1
"58",76,"left","SHINEd_Corn.jpg","congruent","n",523.018797,"f","f","left","(148, 362)",337,1,513.245147306503,-75.8391867465942,"  877.55",249,4,1,1
"58",77,"right","SHINEd_skeleton-lizard.jpg","incongruent","n",734.007551,"f","f","left","(862, 362)",250,1,724.486542828948,135.40220877585," 1168.33",185,4,1,1
"58",78,"left","SHINEd_okapi.jpg","congruent","n",634.341535,"f","f","left","(148, 362)",425,1,625.073168351392,35.9888342982945,"  814.00",151,4,1,1
"58",79,"right","SHINEd_skunk.jpg","incongruent","n",479.668366,"f","f","left","(862, 362)",290,1,470.652640873836,-118.431693179261,"  783.41",106,4,1,1
"58",80,"right","SHINEd_Bugle.jpg","congruent","m",507.438315,"j","j","right","(862, 362)",14,1,498.67523139628,-90.409102656817," 1454.01",11,4,1,1
"58",81,"right","SHINEd_antlers.jpg","incongruent","n",672.05603,"f","f","left","(862, 362)",418,1,663.545587918725,74.4612538656272,"  758.43",208,4,1,1
"58",82,"right","SHINEd_couch.jpg","congruent","m",691.813322,"j","j","right","(862, 362)",202,1,683.555521441169,94.4711873880715," 2576.41",428,1,1,NA
"58",83,"left","SHINEd_Gloves_WhiteKnit.jpg","incongruent","m",609.790453,"j","j","right","(148, 362)",197,1,601.785293963613,12.7009599105158," 1647.06",409,3,1,1
"58",84,"left","SHINEd_Bird_Parrot.jpg","congruent","n",518.418612,"f","f","left","(148, 362)",233,1,510.666094486057,-78.4182395670399," 1214.14",325,4,1,1
"58",85,"left","SHINEd_Pants_Firefighter.jpg","incongruent","m",616.514661,"j","j","right","(148, 362)",1,1,609.014785008502,19.9304509554044," 1422.72",200,4,1,1
"58",86,"left","SHINEd_koala.jpg","congruent","n",501.091179,"f","f","left","(148, 362)",365,1,493.843944530946,-95.2403895221514,"  702.03",100,4,1,1
"58",87,"right","SHINEd_PictureFrame.jpg","congruent","m",530.564868,"j","j","right","(862, 362)",222,1,523.57027505339,-65.5140589997071," 1044.33",376,1,1,NA
"58",88,"right","SHINEd_Nuts_Walnut.jpg","incongruent","n",605.757406,"f","f","left","(862, 362)",446,1,599.015454575834,9.93112052273711,"  856.71",132,4,1,1
"58",89,"left","SHINEd_Cloud.jpg","congruent","n",706.746627,"j","f","left","(148, 362)",385,0,700.257317098279,111.172983045181," 1774.65",16,4,1,1
"58",90,"left","SHINEd_DoorKnob.jpg","incongruent","m",653.821784,"j","j","right","(148, 362)",53,1,647.585115620723,58.5007815676257," 1076.30",356,4,1,1
"58",91,"right","SHINEd_ladybug.jpg","incongruent","n",866.390414,"f","f","left","(862, 362)",238,1,860.406387143167,271.32205309007," 1063.91",398,4,1,1
"58",92,"right","SHINEd_Boardgame_Chess.jpg","congruent","m",584.010421,"j","j","right","(862, 362)",86,1,578.279035665612,-10.8052983874858," 1225.99",189,4,0,0
"58",93,"right","SHINEd_eucalyptus.jpg","incongruent","n",523.434822,"f","f","left","(862, 362)",282,1,517.956078188056,-71.1282558650414,"  965.70",204,4,1,1
"58",94,"right","SHINEd_Helmet_Bicycle.jpg","congruent","m",616.141601,"j","j","right","(862, 362)",18,1,610.9154987105,21.8311646574028,"  962.90",170,4,1,1
"58",95,"left","SHINEd_Makeup_Compact.jpg","incongruent","m",579.538027,"f","j","right","(148, 362)",121,0,574.564566232944,-14.5197678201529," 1146.36",85,4,1,1
"58",96,"right","SHINEd_pomegrant.jpg","incongruent","n",530.363849,"f","f","left","(862, 362)",354,1,525.643029755389,-63.4413042977087,"  984.13",395,3,1,1
"58",97,"right","SHINEd_Ball_Basketball.jpg","congruent","m",516.738052,"j","j","right","(862, 362)",130,1,512.269874277833,-76.8144597752644,"  807.39",362,4,1,1
"58",98,"right","SHINEd_mushroom_other.jpg","incongruent","n",785.450932,"f","f","left","(862, 362)",426,1,781.235395800277,192.15106174718," 1020.56",435,4,1,1
"58",99,"right","SHINEd_Car_Vintage.jpg","congruent","m",598.171274,"j","j","right","(862, 362)",186,1,594.208379322721,5.12404526962419," 1182.03",424,1,0,0
"58",100,"right","SHINEd_wheat_stock.jpg","incongruent","n",792.695229,"f","f","left","(862, 362)",358,1,788.984975845166,199.900641792068," 1302.78",101,3,1,1
"58",101,"left","SHINEd_DentalFloss.jpg","incongruent","m",581.927524,"j","j","right","(148, 362)",117,1,578.46991236761,-10.6144216854874,"  913.04",148,4,1,1
"58",102,"right","SHINEd_Flashlight.jpg","congruent","m",594.062316,"j","j","right","(862, 362)",98,1,590.857345890054,1.77301183695697," 1090.65",214,4,1,1
"58",103,"right","SHINEd_spinach.jpg","incongruent","n",606.574662,"f","f","left","(862, 362)",266,1,603.622333412499,14.5379993594012," 3224.57",382,2,1,NA
"58",104,"left","SHINEd_soil.jpg","congruent","n",739.986872,"f","f","left","(148, 362)",289,1,737.287184934943,148.202850881845,"  982.72",241,4,1,1
"58",105,"left","SHINEd_Snail.jpg","congruent","n",713.111677,"f","f","left","(148, 362)",241,1,710.664631457387,121.58029740429," 1173.98",192,4,1,1
"58",106,"right","SHINEd_Feet.jpg","incongruent","n",627.086018,"f","f","left","(862, 362)",310,1,624.891613979831,35.807279926734," 4639.72",37,3,1,1
"58",107,"left","SHINEd_Branch.jpg","congruent","n",569.598149,"f","f","left","(148, 362)",333,1,567.656386502276,-21.4279475508216,"  823.95",345,4,1,1
"58",108,"right","SHINEd_red_Cabbage.jpg","incongruent","n",549.761609,"f","f","left","(862, 362)",230,1,548.07248802472,-41.0118460283774," 1215.65",449,4,1,1
"58",109,"right","SHINEd_Bathtub.jpg","congruent","m",456.025499,"j","j","right","(862, 362)",58,1,454.589019547164,-134.495314505933," 1760.90",116,4,1,1
"58",110,"right","SHINEd_Dog_Bulldog.jpg","incongruent","n",453.206754,"f","f","left","(862, 362)",326,1,452.022916069608,-137.061417983489,"  929.65",40,4,1,1
"58",111,"right","SHINEd_Bucket_Rusty.jpg","congruent","m",579.432038,"j","j","right","(862, 362)",34,1,578.500841592053,-10.5834924610446,"  805.16",404,4,1,1
"58",112,"right","SHINEd_Currants.jpg","incongruent","n",607.468025,"f","f","left","(862, 362)",254,1,606.789470114497,17.7051360613997," 1318.71",147,4,1,1
"58",113,"left","SHINEd_Leek.jpg","congruent","n",668.88462,"f","f","left","(148, 362)",357,1,668.458706636941,79.374372583844," 1062.14",137,3,1,1
"58",114,"left","SHINEd_mosquito.jpg","congruent","n",632.08331,"f","f","left","(148, 362)",393,1,631.910038159386,42.8257041062882," 1264.17",58,4,1,1
"58",115,"left","SHINEd_Bowl_Wooden.jpg","incongruent","m",597.916099,"j","j","right","(148, 362)",141,1,597.99546868183,8.91113462873252,"  828.52",194,4,1,1
"58",116,"right","SHINEd_Beater_Electric.jpg","congruent","m",649.053289,"j","j","right","(862, 362)",42,1,649.385300204274,60.3009661511767," 2604.35",187,1,0,0
"58",117,"left","SHINEd_Jetski.jpg","incongruent","m",589.234205,"j","j","right","(148, 362)",181,1,589.818857726718,0.734523673621005," 1181.73",127,3,0,0
"58",118,"left","SHINEd_dragonfruit.jpg","congruent","n",577.265836,"f","f","left","(148, 362)",437,1,578.103130249163,-10.9812038039347,"  814.23",456,4,1,1
"58",119,"right","SHINEd_Cat.jpg","incongruent","n",388.70282,"f","f","left","(862, 362)",362,1,389.792755771607,-199.29157828149," 1631.26",420,4,1,1
"58",120,"right","SHINEd_Fryingpan.jpg","congruent","m",721.366229,"j","j","right","(862, 362)",158,1,722.708806294051,133.624472240954," 1108.65",256,2,0,0
"58",121,"right","SHINEd_Gecko.jpg","incongruent","n",779.175993,"f","f","left","(862, 362)",370,1,780.771211816495,191.686877763398,"  846.79",338,4,1,1
"58",122,"left","SHINEd_red_panda.jpg","congruent","n",592.395931,"f","f","left","(148, 362)",273,1,594.24379133894,5.15945728584241,"  955.74",393,3,1,1
"58",123,"left","SHINEd_Cabinet_Display.jpg","incongruent","m",702.116636,"f","j","right","(148, 362)",205,0,704.217137861384,115.132803808287," 2095.66",32,4,1,1
"58",124,"left","SHINEd_Drum_Bongos.jpg","incongruent","m",601.919507,"j","j","right","(148, 362)",9,1,604.272650383828,15.1883163307309," 3038.06",150,3,1,1
"58",125,"left","SHINEd_goldenberry.jpg","congruent","n",566.903337,"f","f","left","(148, 362)",397,1,569.509121906273,-19.5752121468248," 1079.29",283,4,1,1
"58",126,"right","SHINEd_Tomato.jpg","incongruent","n",587.265223,"f","f","left","(862, 362)",450,1,590.123649428717,1.03931537561947,"  894.15",84,4,1,1
"58",127,"left","SHINEd_Dog_ChowChow.jpg","congruent","n",488.602123,"f","f","left","(148, 362)",369,1,491.713190951161,-97.3711431019363," 1382.59",278,4,1,1
"58",128,"left","SHINEd_Pacifier.jpg","incongruent","m",549.769135,"j","j","right","(148, 362)",81,1,553.132844473605,-35.951489579492," 1444.36",153,4,1,1
"58",129,"right","SHINEd_Slide.jpg","congruent","m",483.30916,"j","j","right","(862, 362)",82,1,486.92551099605,-102.158823057048," 3141.88",24,4,1,1
"58",130,"left","SHINEd_Knife_Camping.jpg","incongruent","m",656.475708,"j","j","right","(148, 362)",37,1,660.344700518494,71.2603664653966,"  911.90",289,4,1,1
"58",131,"right","SHINEd_Clarinet.jpg","congruent","m",572.667343,"j","j","right","(862, 362)",6,1,576.788977040938,-12.2953570121592,"  934.15",232,4,1,1
"58",132,"left","SHINEd_platypus.jpg","congruent","n",480.364781,"f","f","left","(148, 362)",293,1,484.739056563382,-104.345277489715," 1311.88",75,4,1,1
"58",133,"right","SHINEd_peacockfeather.jpg","incongruent","n",611.778742,"f","f","left","(862, 362)",382,1,616.405659085827,27.3213250327293,"  710.03",427,4,1,1
"58",134,"right","SHINEd_PencilSharpener.jpg","congruent","m",544.687302,"j","j","right","(862, 362)",74,1,549.566860608271,-39.5174734448263," 1015.16",39,4,1,1
"58",135,"right","SHINEd_volcano copy.jpg","incongruent","n",690.815248,"j","f","left","(862, 362)",234,0,695.947448130715,106.863114077618,"  975.22",134,4,1,1
"58",136,"left","SHINEd_Kettle.jpg","incongruent","m",NA,"miss","j","right","(148, 362)",157,0,NA,NA," 4879.87",270,3,1,1
"58",137,"right","SHINEd_Clip_Paper.jpg","congruent","m",571.203208,"j","j","right","(862, 362)",66,1,576.840691175604,-12.2436428774935," 1252.46",311,1,0,0
"58",138,"left","SHINEd_Turtle.jpg","congruent","n",546.006511,"f","f","left","(148, 362)",305,1,551.896635698048,-37.1876983550492," 1070.65",93,2,1,NA
"58",139,"left","SHINEd_HotWaterBottle.jpg","incongruent","m",583.565601,"j","j","right","(148, 362)",113,1,589.708367220492,0.624033167395012," 1030.17",336,4,1,1
"58",140,"right","SHINEd_Swing_Child.jpg","congruent","m",498.46799,"j","j","right","(862, 362)",166,1,504.863397742937,-84.2209363101608," 3556.84",163,3,1,1
"58",141,"right","SHINEd_Pumpkin.jpg","incongruent","n",631.15959,"f","f","left","(862, 362)",294,1,637.807639265381,48.7233052122835," 1056.22",219,4,1,1
"58",142,"left","SHINEd_cottonplant.jpg","congruent","n",547.653184,"f","f","left","(148, 362)",297,1,554.553874787825,-34.5304592652722," 1079.78",315,4,1,1
"58",143,"right","SHINEd_RamAnimal.jpg","incongruent","n",630.1371,"f","f","left","(862, 362)",454,1,637.290432310269,48.2060982571721," 4599.87",15,3,0,0
"58",144,"right","SHINEd_Deodorant.jpg","congruent","m",674.866824,"j","j","right","(862, 362)",118,1,682.272797832714,93.1884637796163,"  821.31",442,4,1,1
"58",145,"left","SHINEd_Megaphone.jpg","incongruent","m",535.411225,"j","j","right","(148, 362)",101,1,543.069840355158,-46.0144936979394," 3697.62",380,2,1,NA
"58",146,"right","SHINEd_rose.jpg","incongruent","n",754.85838,"f","f","left","(862, 362)",430,1,762.769636877602,173.685302824505,"  880.70",213,4,1,1
"58",147,"left","SHINEd_Leaf_Clover.jpg","congruent","n",454.901134,"f","f","left","(148, 362)",449,1,463.065032400047,-126.019301653051,"  720.82",257,4,1,1
"58",148,"left","SHINEd_Carabiner_Orange.jpg","incongruent","m",460.063808,"j","j","right","(148, 362)",29,1,468.480347922491,-120.603986130607," 4478.63",3,4,1,1
"58",149,"left","SHINEd_vanillabean copy.jpg","congruent","n",546.058513,"f","f","left","(148, 362)",329,1,554.727694444935,-34.3566396081623," 3128.76",73,2,0,0
"58",150,"right","SHINEd_Calculator.jpg","congruent","m",637.39383,"j","j","right","(862, 362)",94,1,646.315652967379,57.231318914282," 1463.58",401,4,1,1
"58",151,"left","SHINEd_catcus.jpg","congruent","n",466.702591,"j","f","left","(148, 362)",313,0,475.877055489824,-113.207278563274,"  790.64",364,4,1,1
"58",152,"left","SHINEd_Vest.jpg","incongruent","m",461.39864,"j","j","right","(148, 362)",5,1,470.825746012268,-118.258588040829," 3447.39",12,4,1,1
"58",153,"left","SHINEd_Bleachers.jpg","incongruent","m",752.653035,"j","j","right","(148, 362)",133,1,762.332782534712,173.248448481615,"  980.99",354,3,0,0
"58",154,"right","SHINEd_Weights_Dumbells.jpg","congruent","m",516.023424,"j","j","right","(862, 362)",22,1,525.955813057156,-63.128520995941,"  982.08",439,4,1,1
"58",155,"right","SHINEd_CasketOpen.jpg","congruent","m",401.757158,"j","j","right","(862, 362)",218,1,411.942188579601,-177.142145473497,"  862.53",209,4,1,1
"58",156,"left","SHINEd_Carrot.jpg","congruent","n",414.839077,"f","f","left","(148, 362)",281,1,425.276749102045,-163.807584951052," 1252.39",334,4,1,1
"58",157,"left","SHINEd_Wheel_Steering.jpg","incongruent","m",346.13383,"f","j","right","(148, 362)",185,0,356.824143624489,-232.260190428608," 1805.50",149,2,0,0
"58",158,"right","SHINEd_Cantaloupe.jpg","incongruent","n",581.445985,"f","f","left","(862, 362)",338,1,592.388940146933,3.3046060938361," 1327.00",268,4,1,1
"58",159,"right","SHINEd_Bicycle_Kids.jpg","congruent","m",513.800743,"j","j","right","(862, 362)",26,1,524.996339669378,-64.0879943837196,"  887.99",291,4,1,1
"58",160,"left","SHINEd_WatermelonSlice.jpg","congruent","n",575.632635,"f","f","left","(148, 362)",325,1,587.080873191822,-2.00346086127525,"  710.08",292,4,1,1
"58",161,"left","SHINEd_Bottle_Blue.jpg","incongruent","m",533.097777,"j","j","right","(148, 362)",217,1,544.798656714266,-44.2856773388311,"  980.96",267,4,1,1
"58",162,"right","SHINEd_Door_Green.jpg","congruent","m",617.119245,"j","j","right","(862, 362)",106,1,629.072766236711,39.9884321836132," 2710.40",348,4,1,1
"58",163,"left","SHINEd_Skates.jpg","incongruent","m",444.533364,"j","j","right","(148, 362)",125,1,456.739526759155,-132.344807293942," 3440.44",307,4,1,1
"58",164,"right","SHINEd_ElectricOutlet.jpg","congruent","m",472.135873,"j","j","right","(862, 362)",102,1,484.594677281599,-104.489656771498,"  912.73",228,4,1,1
"58",165,"left","SHINEd_FlipFlop_PairBlue.jpg","incongruent","m",475.340455,"j","j","right","(148, 362)",153,1,488.051900804043,-101.032433249054,"  713.78",290,4,1,1
"58",166,"left","SHINEd_Chair_High.jpg","incongruent","m",425.537533,"j","j","right","(148, 362)",209,1,438.501620326488,-150.58271372661," 1092.36",277,4,1,1
"58",167,"left","SHINEd_Oyster.jpg","congruent","n",508.678977,"f","f","left","(148, 362)",433,1,521.895705848932,-67.1886282041654," 1180.84",96,4,1,1
"58",168,"right","SHINEd_purple_yam.jpg","incongruent","n",662.655153,"f","f","left","(862, 362)",442,1,676.124523371376,87.0401893182789," 1287.12",340,4,1,1
"58",169,"left","SHINEd_Leg.jpg","congruent","n",473.928219,"f","f","left","(148, 362)",405,1,487.65023089382,-101.434103159277," 2511.37",180,4,1,1
"58",170,"right","SHINEd_LawnMower.jpg","congruent","m",543.658531,"j","j","right","(862, 362)",46,1,557.633184416265,-31.4511496368326," 1077.74",104,3,1,1
"58",171,"right","SHINEd_Boot_Rain.jpg","congruent","m",602.035923,"j","j","right","(862, 362)",150,1,616.263217938709,27.1788838856117," 1197.72",269,3,0,0
"58",172,"right","SHINEd_Cranberry.jpg","incongruent","n",606.221538,"f","f","left","(862, 362)",398,1,620.701474461153,31.617140408056," 1064.54",282,4,1,1
"58",173,"right","SHINEd_USBKey.jpg","congruent","m",577.965446,"j","j","right","(862, 362)",90,1,592.698023983598,3.61368993050026," 1526.10",60,4,1,1
"58",174,"right","SHINEd_Fruit_Orange.jpg","incongruent","n",598.935579,"f","f","left","(862, 362)",302,1,613.920798506042,24.8364644529445," 2583.28",254,3,0,0
"58",175,"right","SHINEd_MobilityScooter.jpg","congruent","m",675.457811,"j","j","right","(862, 362)",182,1,690.695672028486,101.611337975389,"  879.27",286,3,0,0
"58",176,"left","SHINEd_Gorilla.jpg","congruent","n",607.401376,"f","f","left","(148, 362)",285,1,622.89187855093,33.8075444978331,"  878.88",451,4,1,1
"58",177,"left","SHINEd_Hat_Baseball.jpg","incongruent","m",684.497725,"j","j","right","(148, 362)",189,1,700.240869073375,111.156535020277," 1206.53",212,2,0,0
"58",178,"right","SHINEd_Drill.jpg","congruent","m",497.122332,"j","j","right","(862, 362)",30,1,513.118117595819,-75.9662164572784,"  886.25",243,4,1,1
"58",179,"left","SHINEd_Binder.jpg","incongruent","m",613.270558,"f","j","right","(148, 362)",65,0,629.518985118263,40.4346510651659," 1093.43",230,3,0,0
"58",180,"right","SHINEd_Teapot.jpg","congruent","m",793.453641,"j","j","right","(862, 362)",214,1,809.954709640707,220.87037558761," 1816.59",231,3,0,0
"58",181,"right","SHINEd_HairClip.jpg","congruent","m",655.075949,"j","j","right","(862, 362)",194,1,671.829659163152,82.7453251100544,"  833.92",169,4,1,1
"58",182,"left","SHINEd_Boat_Colourful.jpg","incongruent","m",763.026937,"j","j","right","(148, 362)",173,1,780.033288685596,190.948954632499," 1077.92",350,4,1,1
"58",183,"left","SHINEd_white_strawberries.jpg","congruent","n",463.086148,"f","f","left","(148, 362)",417,1,480.34514120804,-108.739192845057,"  945.42",25,4,1,1
"58",184,"left","SHINEd_BowlingPin.jpg","incongruent","m",587.901445,"j","j","right","(148, 362)",25,1,605.413079730484,16.3287456773872," 2006.80",306,2,1,NA
"58",185,"right","SHINEd_Mask_HockeyGoalie.jpg","congruent","m",495.437449,"j","j","right","(862, 362)",126,1,513.201725252929,-75.8826088001685,"  934.43",326,3,0,0
"58",186,"left","SHINEd_Clock_Radio.jpg","incongruent","m",493.749387,"j","j","right","(148, 362)",93,1,511.766304775373,-77.3180292777242," 1619.68",240,4,0,0
"58",187,"left","SHINEd_orchid.jpg","congruent","n",648.299769,"j","f","left","(148, 362)",261,0,666.569328297817,77.48499424472," 7044.49",235,2,1,NA
"58",188,"left","SHINEd_BusStop.jpg","incongruent","m",458.750205,"j","j","right","(148, 362)",145,1,477.272405820262,-111.811928232836,"  990.73",273,3,0,0
"58",189,"left","SHINEd_Switch_LightWhite.jpg","incongruent","m",502.490234,"j","j","right","(148, 362)",57,1,521.265076342706,-67.8192577103915," 2132.16",130,3,1,1
"58",190,"left","SHINEd_pickle.jpg","congruent","n",434.447057,"f","f","left","(148, 362)",373,1,453.47454086515,-135.609793187947,"  765.97",313,4,1,1
"58",191,"left","SHINEd_brusselsprouts.jpg","congruent","n",365.526381,"f","f","left","(148, 362)",265,1,384.806506387594,-204.277827665503," 1862.85",205,3,0,0
"58",192,"left","SHINEd_Mattress.jpg","incongruent","m",443.911108,"j","j","right","(148, 362)",49,1,463.443874910039,-125.640459143059," 1140.37",114,2,0,0
"58",193,"right","SHINEd_manatee.jpg","incongruent","n",590.723964,"f","f","left","(862, 362)",342,1,610.509372432483,21.4250383793857," 2088.33",146,4,1,1
"58",194,"left","SHINEd_mizuna.jpg","congruent","n",524.386979,"f","f","left","(148, 362)",429,1,544.425028954927,-44.6593050981701,"  773.45",351,4,1,1
"58",195,"right","SHINEd_SkullDeer.jpg","incongruent","n",558.420229,"f","f","left","(862, 362)",278,1,578.710920477371,-10.3734135757259,"  717.92",297,4,1,1
"58",196,"right","SHINEd_LightHouse.jpg","congruent","m",569.597613,"j","j","right","(862, 362)",146,1,590.140945999816,1.05661194671848,"  974.18",252,3,0,0
"58",197,"left","SHINEd_Mango.jpg","congruent","n",510.759446,"f","f","left","(148, 362)",277,1,531.55542052226,-57.5289135308372," 1646.97",182,2,1,NA
"58",198,"left","SHINEd_Lychee.jpg","congruent","n",595.79534,"f","f","left","(148, 362)",321,1,616.843956044704,27.759621991607," 1502.84",261,3,0,0
"58",199,"right","SHINEd_Bird_Pelican.jpg","incongruent","n",720.462584,"j","f","left","(862, 362)",402,0,741.763841567149,152.679507514051,"  967.78",142,4,0,0
"58",200,"right","SHINEd_Bench_Black.jpg","congruent","m",589.254009,"j","j","right","(862, 362)",206,1,610.807908089593,21.7235740364955," 1293.03",357,1,0,0
"58",201,"right","SHINEd_Cane_Metal.jpg","congruent","m",432.103979,"j","j","right","(862, 362)",190,1,453.910519612037,-135.17381444106,"  988.54",318,4,0,0
"58",202,"left","SHINEd_Bottle_Beer.jpg","incongruent","m",446.061952,"f","j","right","(148, 362)",213,0,468.121134134481,-120.963199918616," 1710.15",388,1,0,0
"58",203,"left","SHINEd_frog.jpg","congruent","n",530.893677,"f","f","left","(148, 362)",345,1,553.205500656926,-35.8788333961716," 1027.74",453,4,1,1
"58",204,"left","SHINEd_Toad.jpg","congruent","n",503.798136,"f","f","left","(148, 362)",441,1,526.36260117937,-62.7217328737274," 2057.72",5,4,1,1
"58",205,"left","SHINEd_Bells_Christmas.jpg","incongruent","m",530.255875,"j","j","right","(148, 362)",225,1,553.072981701814,-36.0113523512832," 1223.56",112,4,0,0
"58",206,"right","SHINEd_Dragonfly.jpg","incongruent","n",759.647507,"f","f","left","(862, 362)",346,1,782.717255224258,193.632921171161," 3717.19",145,3,0,0
"58",207,"left","SHINEd_Pineapple.jpg","congruent","n",706.989045,"f","f","left","(148, 362)",353,1,730.311434746703,141.227100693605,"  887.35",27,4,1,1
"58",208,"left","SHINEd_DeepFryer.jpg","incongruent","m",633.182457,"j","j","right","(148, 362)",161,1,656.757488269147,67.6731542160497," 1065.46",174,3,0,0
"58",209,"left","SHINEd_Mitt_Oven.jpg","incongruent","m",573.107707,"j","j","right","(148, 362)",137,1,596.935379791591,7.85104573849399,"  852.06",412,4,1,1
"58",210,"right","SHINEd_discoball.jpg","congruent","m",634.183707,"j","j","right","(862, 362)",226,1,658.264021314036,69.1796872609383,"  956.85",419,4,1,1
"58",211,"left","SHINEd_Bird_Eagle.jpg","congruent","n",614.717842,"f","f","left","(148, 362)",257,1,639.05079783648,49.9664637833826," 2765.69",133,2,1,NA
"58",212,"right","SHINEd_Flamingo_Real.jpg","incongruent","n",657.038775,"j","f","left","(862, 362)",406,0,681.624372358924,92.5400383058268," 2765.79",198,4,1,1
"58",213,"right","SHINEd_Dog_CockerSpaniel.jpg","incongruent","n",557.075289,"f","f","left","(862, 362)",306,1,581.913527881368,-7.17080617172893,"  934.37",97,4,1,1
"58",214,"left","SHINEd_catfish.jpg","congruent","n",792.302846,"f","f","left","(148, 362)",361,1,817.393726403813,228.309392350715,"  831.91",31,4,1,1
"58",215,"left","SHINEd_Crown.jpg","incongruent","m",621.549888,"j","j","right","(148, 362)",193,1,646.893409926257,57.8090758731596," 1913.24",64,4,1,1
"58",216,"left","SHINEd_DogHouse.jpg","incongruent","m",431.502489,"j","j","right","(148, 362)",165,1,457.098652448701,-131.985681604396,"  893.08",215,4,1,1
"58",217,"right","SHINEd_DustPan.jpg","congruent","m",794.789501,"j","j","right","(862, 362)",54,1,820.638305971145,231.553971918048," 1132.26",335,2,0,0
"58",218,"left","SHINEd_Dice.jpg","incongruent","m",497.130586,"j","j","right","(148, 362)",89,1,523.23203249359,-65.8523015595076," 3065.68",6,4,1,1
"58",219,"right","SHINEd_brownbeans.jpg","incongruent","n",525.068696,"f","f","left","(862, 362)",366,1,551.422784016034,-37.6615500370633," 1549.16",77,3,1,1
"58",220,"left","SHINEd_starfruit.jpg","congruent","n",418.724846,"f","f","left","(148, 362)",317,1,445.331575538478,-143.752758514619," 1293.09",227,4,1,1
"58",221,"left","SHINEd_Quartz.jpg","congruent","n",606.534726,"f","f","left","(148, 362)",401,1,633.394097060923,44.3097630078252," 1182.54",255,4,1,1
"58",222,"right","SHINEd_TissueBox.jpg","congruent","m",546.08515,"j","j","right","(862, 362)",50,1,573.197162583367,-15.8871714697305," 2322.19",55,3,1,1
"58",223,"left","SHINEd_Tree_Fir.jpg","congruent","n",549.915671,"f","f","left","(148, 362)",229,1,577.280325105811,-11.8040089472862,"  845.94",312,4,1,1
"58",224,"right","SHINEd_Seashell_BayScallop.jpg","incongruent","n",961.490355,"j","f","left","(862, 362)",270,0,989.107650628255,400.023316575158," 1436.29",201,3,0,0
"58",225,"right","SHINEd_Butterfly.jpg","incongruent","n",413.195627,"j","f","left","(862, 362)",318,0,441.0655641507,-148.018769902398," 2094.47",9,4,1,1
"58",226,"right","SHINEd_Glove_Rubber.jpg","congruent","m",619.623067,"j","j","right","(862, 362)",138,1,647.745645673144,58.6613116200466," 1173.66",272,3,0,0
"58",227,"left","SHINEd_ChainRusty.jpg","incongruent","m",541.405788,"j","j","right","(148, 362)",21,1,569.781008195588,-19.3033258575091," 1104.52",373,4,1,1
"58",228,"right","SHINEd_grasshopper.jpg","incongruent","n",498.650076,"f","f","left","(862, 362)",286,1,527.277937718032,-61.8063963350648," 1243.65",416,1,0,0
