"participant","trial_index","screenposition","stimulus","trialtype","classifyenc","rt","response","responsecorrect","responsecorrect_side","screenlocation","stimnum","acc","rtResidual","rtResidualC","rt_rec","trialno_rec","ratingConfidence","acc_rec","memoryHits.hc"
"59",1,"left","SHINEd_Dog_ChowChow.jpg","incongruent","n",NA,"miss","j","right","(148, 362)",369,0,NA,NA," 1260.80",294,4,0,0
"59",2,"left","SHINEd_HotWaterBottle.jpg","congruent","m",663.130962,"f","f","left","(148, 362)",113,1,624.24648515635,88.5398725252386," 1262.83",100,4,1,1
"59",3,"left","SHINEd_FlipFlop_PairBlue.jpg","congruent","m",698.715777,"f","f","left","(148, 362)",153,1,660.175153610597,124.468540979486," 1277.42",263,4,1,1
"59",4,"left","SHINEd_Giraffe.jpg","incongruent","n",487.069642,"j","j","right","(148, 362)",381,1,448.872872064842,-86.833740566269," 1620.24",377,4,1,1
"59",5,"right","SHINEd_treestump.jpg","congruent","n",891.512642,"f","j","right","(862, 362)",414,0,853.659725519087,317.953112887976,"  820.51",123,4,1,1
"59",6,"left","SHINEd_Leaf_Clover.jpg","incongruent","n",599.679917,"j","j","right","(148, 362)",449,1,562.170853973333,26.4642413422219," 1132.79",456,3,0,0
"59",7,"right","SHINEd_pomegrant.jpg","congruent","n",692.441488,"f","j","right","(862, 362)",354,0,655.276278427578,119.569665796467," 1325.34",75,2,1,NA
"59",8,"right","SHINEd_Mirror_Makeup.jpg","incongruent","m",893.848554,"f","f","left","(862, 362)",122,1,857.027197881824,321.320585250713," 1251.95",160,4,1,1
"59",9,"right","SHINEd_mushroom_other.jpg","congruent","n",681.423616,"f","j","right","(862, 362)",426,0,644.946113336069,109.239500704958," 1101.91",310,3,0,0
"59",10,"left","SHINEd_white_strawberries.jpg","incongruent","n",699.075637,"f","j","right","(148, 362)",417,0,662.941987790315,127.235375159204," 1780.96",280,4,0,0
"59",11,"left","SHINEd_Knife_Camping.jpg","congruent","m",783.125297,"f","f","left","(148, 362)",37,1,747.33550124456,211.628888613449,"  861.71",74,4,0,0
"59",12,"right","SHINEd_Clip_Paper.jpg","incongruent","m",682.253893,"f","f","left","(862, 362)",66,1,646.807950698805,111.101338067694," 1149.02",423,4,1,1
"59",13,"right","SHINEd_Goat.jpg","congruent","n",623.836754,"j","j","right","(862, 362)",322,1,588.734665153051,53.02805252194," 1550.10",286,3,0,0
"59",14,"left","SHINEd_donkey.jpg","incongruent","n",418.759811,"j","j","right","(148, 362)",409,1,384.001575607296,-151.705037023815,"  928.43",316,4,1,1
"59",15,"left","SHINEd_Megaphone.jpg","congruent","m",486.802838,"f","f","left","(148, 362)",101,1,452.388456061542,-83.3181565695692," 2972.77",24,2,1,NA
"59",16,"left","SHINEd_Quartz.jpg","incongruent","n",754.034137,"j","j","right","(148, 362)",401,1,719.963608515787,184.256995884676," 2989.22",2,4,1,1
"59",17,"left","SHINEd_DentalFloss.jpg","congruent","m",503.662454,"f","f","left","(148, 362)",117,1,469.935778970033,-65.7708336610783," 1299.06",373,3,0,0
"59",18,"left","SHINEd_orchid.jpg","incongruent","n",563.004941,"j","j","right","(148, 362)",261,1,529.622119424278,-6.0844932068328," 1252.02",421,2,1,NA
"59",19,"right","SHINEd_couch.jpg","incongruent","m",533.649313,"f","f","left","(862, 362)",202,1,500.610344878524,-35.0962677525874,"  908.82",340,4,1,1
"59",20,"right","SHINEd_Cantaloupe.jpg","congruent","n",682.146072,"j","j","right","(862, 362)",338,1,649.450957332769,113.744344701658,"  917.36",88,3,1,1
"59",21,"left","SHINEd_dinosaur fossil.jpg","incongruent","n",685.264033,"j","j","right","(148, 362)",377,1,652.912771787015,117.206159155904,"  773.96",107,4,1,1
"59",22,"right","SHINEd_Deodorant.jpg","incongruent","m",577.836382,"f","f","left","(862, 362)",118,1,545.82897424126,10.1223616101489," 1238.70",62,1,0,0
"59",23,"left","SHINEd_Boat_Colourful.jpg","congruent","m",894.632464,"f","f","left","(148, 362)",173,1,862.968909695506,327.262297064394," 1383.38",35,3,1,1
"59",24,"right","SHINEd_Ball_Bowling.jpg","incongruent","m",496.541198,"j","f","left","(862, 362)",134,0,465.221497149751,-70.4851154813602," 1286.88",18,3,1,1
"59",25,"left","SHINEd_Crown.jpg","congruent","m",509.607527,"f","f","left","(148, 362)",193,1,478.631679603996,-57.0749330271148,"  701.96",448,4,1,1
"59",26,"right","SHINEd_Clarinet.jpg","incongruent","m",578.644961,"f","f","left","(862, 362)",6,1,548.012967058242,12.3063544271307,"  869.51",385,4,1,1
"59",27,"right","SHINEd_Cherry.jpg","congruent","n",527.721203,"j","j","right","(862, 362)",258,1,497.433062512487,-38.2735501186239," 2632.04",106,4,1,1
"59",28,"right","SHINEd_wheat_stock.jpg","congruent","n",419.296633,"j","j","right","(862, 362)",358,1,389.352345966733,-146.354266664378,"  877.14",437,4,0,0
"59",29,"right","SHINEd_airpump.jpg","incongruent","m",492.964686,"f","f","left","(862, 362)",114,1,463.364252420978,-72.342360210133,"  797.10",7,4,1,1
"59",30,"right","SHINEd_eucalyptus.jpg","congruent","n",442.424551,"j","j","right","(862, 362)",282,1,413.167970875224,-122.538641755888,"  845.38",19,3,1,1
"59",31,"left","SHINEd_Branch.jpg","incongruent","n",503.789074,"j","j","right","(148, 362)",333,1,474.876347329469,-60.8302653016421," 2181.05",419,2,0,0
"59",32,"right","SHINEd_Lipstick.jpg","incongruent","m",522.949358,"f","f","left","(862, 362)",198,1,494.380484783714,-41.3261278473967,"  916.55",272,4,1,1
"59",33,"right","SHINEd_Bowl_Fruits.jpg","congruent","n",447.719568,"j","j","right","(862, 362)",434,1,419.49454823796,-116.212064393151,"  897.91",379,4,1,1
"59",34,"right","SHINEd_Glove_Rubber.jpg","incongruent","m",570.097754,"f","f","left","(862, 362)",138,1,542.216587692205,6.50997506109421,"  817.25",195,4,1,1
"59",35,"left","SHINEd_Switch_LightWhite.jpg","congruent","m",726.149477,"f","f","left","(148, 362)",57,1,698.612164146451,162.90555151534,"  966.79",321,4,1,1
"59",36,"right","SHINEd_Box_Notepaper.jpg","incongruent","m",650.591606,"j","f","left","(862, 362)",70,0,623.398146600696,87.691533969585,"  879.99",192,4,1,1
"59",37,"right","SHINEd_greenapple.jpg","congruent","n",541.215741,"j","j","right","(862, 362)",410,1,514.366135054942,-21.3404775761695," 1539.79",165,3,1,1
"59",38,"left","SHINEd_red_panda.jpg","incongruent","n",521.384334,"j","j","right","(148, 362)",273,1,494.878581509187,-40.8280311219241," 1044.90",287,3,0,0
"59",39,"right","SHINEd_Currants.jpg","congruent","n",428.745831,"j","j","right","(862, 362)",254,1,402.583931963432,-133.122680667679," 1277.03",348,1,0,0
"59",40,"right","SHINEd_Boardgame_Chess.jpg","incongruent","m",527.474013,"f","f","left","(862, 362)",86,1,501.655967417678,-34.0506452134331,"  733.28",265,4,1,1
"59",41,"left","SHINEd_Binder.jpg","congruent","m",484.69459,"f","f","left","(148, 362)",65,1,459.220397871923,-76.4862147591877,"  941.34",220,4,1,1
"59",42,"right","SHINEd_Briefcase_Leather.jpg","incongruent","m",544.672803,"f","f","left","(862, 362)",210,1,519.542464326169,-16.1641483049422,"  755.31",119,3,0,0
"59",43,"left","SHINEd_RecordPlayer.jpg","congruent","m",462.118538,"f","f","left","(148, 362)",149,1,437.332052780414,-98.3745598506968," 1916.45",451,4,1,1
"59",44,"right","SHINEd_Kite_Rainbow.jpg","incongruent","m",338.343878,"j","f","left","(862, 362)",78,0,313.90124623466,-221.805366396451," 1492.81",246,4,1,1
"59",45,"right","SHINEd_TissueBox.jpg","incongruent","m",589.992698,"f","f","left","(862, 362)",50,1,565.893919688905,30.1873070577941," 1038.74",63,4,1,1
"59",46,"left","SHINEd_Escalator.jpg","congruent","m",513.222674,"f","f","left","(148, 362)",177,1,489.467749143151,-46.2388634879605,"  949.24",411,4,1,1
"59",47,"left","SHINEd_dragonfruit.jpg","incongruent","n",517.179459,"j","j","right","(148, 362)",437,1,493.768387597396,-41.9382250337151,"  941.72",194,4,1,1
"59",48,"left","SHINEd_koala.jpg","incongruent","n",482.71798,"j","j","right","(148, 362)",365,1,459.650762051641,-76.0558505794696," 1203.95",393,4,1,1
"59",49,"left","SHINEd_Mitt_Oven.jpg","congruent","m",678.245137,"f","f","left","(148, 362)",137,1,655.521772505887,119.815159874776," 2244.36",103,4,1,1
"59",50,"right","SHINEd_Helmet_Bicycle.jpg","incongruent","m",656.790745,"f","f","left","(862, 362)",18,1,634.411233960132,98.7046213290213," 1085.60",334,4,1,1
"59",51,"left","SHINEd_Vest.jpg","congruent","m",549.331694,"f","f","left","(148, 362)",5,1,527.296036414378,-8.41057621673335," 1597.46",6,4,1,1
"59",52,"left","SHINEd_Pacifier.jpg","congruent","m",582.939554,"f","f","left","(148, 362)",81,1,561.247749868623,25.5411372375122,"  799.33",304,4,0,0
"59",53,"left","SHINEd_Broccoli.jpg","incongruent","n",460.708096,"j","j","right","(148, 362)",253,1,439.360145322869,-96.3464673082424,"  796.71",213,4,1,1
"59",54,"left","SHINEd_Gum_Pack.jpg","congruent","m",NA,"miss","f","left","(148, 362)",77,0,NA,NA," 1392.28",376,4,1,1
"59",55,"left","SHINEd_pickle.jpg","incongruent","n",461.471257,"f","j","right","(148, 362)",373,0,440.811013231359,-94.8955993997516," 1052.95",40,2,0,0
"59",56,"left","SHINEd_Pineapple.jpg","incongruent","n",440.653946,"j","j","right","(148, 362)",353,1,420.337555685605,-115.369056945506,"  687.34",108,4,1,1
"59",57,"left","SHINEd_Pants_Firefighter.jpg","congruent","m",516.078192,"f","f","left","(148, 362)",1,1,496.10565513985,-39.6009574912607,"  963.12",445,4,0,0
"59",58,"right","SHINEd_Car_Vintage.jpg","incongruent","m",535.989984,"f","f","left","(862, 362)",186,1,516.361300594096,-19.3453120370152," 1027.90",358,3,0,0
"59",59,"right","SHINEd_Nuts_Walnut.jpg","congruent","n",834.396308,"f","j","right","(862, 362)",446,0,815.111478048341,279.40486541723,"  723.48",414,3,0,0
"59",60,"left","SHINEd_catfish.jpg","incongruent","n",534.423581,"f","j","right","(148, 362)",361,0,515.482604502587,-20.2240081285243,"  980.57",116,4,1,1
"59",61,"right","SHINEd_Scooter.jpg","incongruent","m",513.647736,"f","f","left","(862, 362)",174,1,495.050612956832,-40.6559996742789," 1205.46",396,3,1,1
"59",62,"right","SHINEd_volcano copy.jpg","congruent","n",670.82634,"j","j","right","(862, 362)",234,1,652.573070411078,116.866457779966,"  813.61",283,4,1,1
"59",63,"right","SHINEd_Bench_Black.jpg","incongruent","m",466.486489,"f","f","left","(862, 362)",206,1,448.577072865323,-87.1295397657881," 1035.58",241,3,1,1
"59",64,"right","SHINEd_Cranberry.jpg","congruent","n",406.101463,"j","j","right","(862, 362)",398,1,388.535900319568,-147.170712311543,"  901.05",237,2,0,0
"59",65,"left","SHINEd_Corn.jpg","incongruent","n",543.921578,"j","j","right","(148, 362)",337,1,526.699868773814,-9.00674385729721,"  804.82",159,4,1,1
"59",66,"right","SHINEd_Tomato.jpg","congruent","n",508.085131,"j","j","right","(862, 362)",450,1,491.207275228059,-44.4993374030517," 1101.72",277,4,1,1
"59",67,"left","SHINEd_Bird_Parrot.jpg","incongruent","n",592.087164,"j","j","right","(148, 362)",233,1,575.553161682305,39.8465490511937," 1309.00",15,4,1,1
"59",68,"right","SHINEd_Heater_Outdoor.jpg","incongruent","m",485.08104,"f","f","left","(862, 362)",170,1,468.89089113655,-66.8157214945609,"  780.46",299,2,1,NA
"59",69,"right","SHINEd_avocado.jpg","congruent","n",544.405335,"j","j","right","(862, 362)",394,1,528.559039590796,-7.14757304031537,"  922.89",375,4,1,1
"59",70,"left","SHINEd_Cloud.jpg","incongruent","n",580.928827,"j","j","right","(148, 362)",385,1,565.426385045041,29.71977241393,"  822.10",261,4,1,1
"59",71,"right","SHINEd_Feet.jpg","congruent","n",544.130604,"f","j","right","(862, 362)",310,0,528.972015499286,-6.73459713182457,"  884.70",151,4,1,1
"59",72,"left","SHINEd_mizuna.jpg","incongruent","n",548.383448,"j","j","right","(148, 362)",429,1,533.568712953532,-2.13789967757904," 3556.53",406,4,1,1
"59",73,"left","SHINEd_Magnifying_Glass.jpg","congruent","m",696.028941,"f","f","left","(148, 362)",105,1,681.558059407777,145.851446776666,"  853.72",366,4,1,1
"59",74,"right","SHINEd_Slide.jpg","incongruent","m",530.097312,"f","f","left","(862, 362)",82,1,515.970283862023,-19.7363287690882," 1150.98",17,4,1,1
"59",75,"left","SHINEd_Saw.jpg","congruent","m",463.065818,"f","f","left","(148, 362)",33,1,449.282643316268,-86.4239693148428,"  853.99",180,4,1,1
"59",76,"right","SHINEd_BearPolar.jpg","congruent","n",401.21855,"j","j","right","(862, 362)",386,1,387.779228770514,-147.927383860597,"  948.41",86,4,1,1
"59",77,"right","SHINEd_Door_Green.jpg","incongruent","m",436.84776,"f","f","left","(862, 362)",106,1,423.752292224759,-111.954320406352,"  980.35",54,4,1,1
"59",78,"right","SHINEd_ladybug.jpg","congruent","n",491.006232,"j","j","right","(862, 362)",238,1,478.254617679005,-57.4519949521064,"  757.29",319,4,1,1
"59",79,"right","SHINEd_LightHouse.jpg","incongruent","m",444.709225,"f","f","left","(862, 362)",146,1,432.30146413325,-103.405148497861,"  892.89",260,4,1,1
"59",80,"right","SHINEd_Dog_CockerSpaniel.jpg","congruent","n",449.809892,"j","j","right","(862, 362)",306,1,437.745984587495,-97.9606280436156,"  844.97",351,4,1,1
"59",81,"right","SHINEd_ChalkboardEraser.jpg","incongruent","m",438.650131,"f","f","left","(862, 362)",62,1,426.930077041741,-108.77653558937," 1110.56",82,4,1,1
"59",82,"right","SHINEd_hyena.jpg","congruent","n",361.563371,"j","j","right","(862, 362)",422,1,350.187170495986,-185.519442135125,"  845.11",253,4,1,1
"59",83,"right","SHINEd_LawnMower.jpg","incongruent","m",500.05314,"f","f","left","(862, 362)",46,1,489.020792950232,-46.6858196808793,"  774.78",109,4,0,0
"59",84,"right","SHINEd_Flamingo_Real.jpg","congruent","n",391.519171,"j","j","right","(862, 362)",406,1,380.830677404477,-154.875935226634," 1042.26",292,4,1,1
"59",85,"left","SHINEd_Tree_Fir.jpg","incongruent","n",676.020548,"j","j","right","(148, 362)",229,1,665.675907858723,129.969295227612,"  925.19",83,4,1,1
"59",86,"left","SHINEd_Ruler_Wooden.jpg","congruent","m",527.45574,"f","f","left","(148, 362)",73,1,517.454953312968,-18.2516593181429," 1906.86",10,4,1,1
"59",87,"left","SHINEd_Camera_Video.jpg","congruent","m",491.364044,"f","f","left","(148, 362)",97,1,481.707110767214,-53.9995018638975," 1054.77",96,3,0,0
"59",88,"left","SHINEd_WatermelonSlice.jpg","incongruent","n",544.333831,"j","j","right","(148, 362)",325,1,535.020751221459,-0.685861409652013,"  876.57",200,4,1,1
"59",89,"right","SHINEd_Grape.jpg","congruent","n",386.758338,"j","j","right","(862, 362)",274,1,377.789111675704,-157.917500955407,"  845.59",131,4,1,1
"59",90,"right","SHINEd_HairClip.jpg","incongruent","m",478.915196,"f","f","left","(862, 362)",194,1,470.28982312995,-65.4167895011612,"  814.85",162,4,1,1
"59",91,"left","SHINEd_Knee.jpg","incongruent","n",569.537379,"f","j","right","(148, 362)",309,0,561.255859584195,25.5492469530843," 1188.83",243,4,1,1
"59",92,"right","SHINEd_skeleton-lizard.jpg","congruent","n",655.031602,"j","j","right","(862, 362)",250,1,647.093936038441,111.38732340733,"  772.83",212,4,1,1
"59",93,"left","SHINEd_starfruit.jpg","incongruent","n",609.55768,"j","j","right","(148, 362)",317,1,601.963867492686,66.2572548615752,"  917.89",266,4,1,1
"59",94,"right","SHINEd_scallion.jpg","congruent","n",508.699621,"j","j","right","(862, 362)",314,1,501.449661946932,-34.2569506841794,"  812.82",233,4,1,1
"59",95,"right","SHINEd_MobilityScooter.jpg","incongruent","m",552.830791,"f","f","left","(862, 362)",182,1,545.924685401177,10.218072770066," 1326.34",248,3,0,0
"59",96,"left","SHINEd_okapi.jpg","incongruent","n",387.694037,"j","j","right","(148, 362)",425,1,381.131784855422,-154.574827775689,"  997.14",16,4,0,0
"59",97,"right","SHINEd_RamAnimal.jpg","congruent","n",456.796134,"j","j","right","(862, 362)",454,1,450.577735309668,-85.1288773214431," 1004.47",273,4,0,0
"59",98,"left","SHINEd_rhino horn.jpg","incongruent","n",686.579873,"j","j","right","(148, 362)",249,1,680.705327763913,144.998715132802,"  877.55",285,4,1,1
"59",99,"left","SHINEd_Gloves_WhiteKnit.jpg","congruent","m",554.037223,"f","f","left","(148, 362)",197,1,548.506531218159,12.7999185870478,"  772.35",267,4,1,1
"59",100,"right","SHINEd_discoball.jpg","incongruent","m",581.944012,"f","f","left","(862, 362)",226,1,576.757173672404,41.0505610412933,"  921.58",365,4,1,1
"59",101,"left","SHINEd_pumpkinseeds-.jpg","incongruent","n",456.047555,"j","j","right","(148, 362)",237,1,451.20457012665,-84.5020425044613,"  796.11",357,4,1,1
"59",102,"right","SHINEd_Starfish.jpg","congruent","n",524.860741,"j","j","right","(862, 362)",378,1,520.361609580895,-15.3450030502159,"  660.07",155,4,1,1
"59",103,"right","SHINEd_Bugle.jpg","incongruent","m",521.462805,"f","f","left","(862, 362)",14,1,517.307527035141,-18.3990855959704," 1132.70",8,4,1,1
"59",104,"right","SHINEd_Cat.jpg","congruent","n",421.243935,"j","j","right","(862, 362)",362,1,417.432510489386,-118.274102141725," 3580.30",264,2,0,0
"59",105,"right","SHINEd_peacockfeather.jpg","congruent","n",399.497759,"j","j","right","(862, 362)",382,1,396.030187943631,-139.67642468748," 1806.04",171,4,1,1
"59",106,"left","SHINEd_Leg.jpg","incongruent","n",547.081267,"f","j","right","(148, 362)",405,0,543.957549397877,8.2509367667659," 1164.74",443,4,0,0
"59",107,"right","SHINEd_Radish.jpg","congruent","n",624.588594,"j","j","right","(862, 362)",242,1,621.808729852122,86.1021172210113," 1108.37",174,4,1,1
"59",108,"left","SHINEd_soil.jpg","incongruent","n",460.208087,"j","j","right","(148, 362)",289,1,457.772076306368,-77.9345363247433,"  843.90",322,4,1,1
"59",109,"right","SHINEd_grasshopper.jpg","congruent","n",471.518107,"j","j","right","(862, 362)",286,1,469.425949760613,-66.2806628704978,"  673.46",188,4,1,1
"59",110,"left","SHINEd_Collards.jpg","incongruent","n",491.804937,"j","j","right","(148, 362)",445,1,490.056633214859,-45.6499794162524,"  783.17",161,4,1,1
"59",111,"left","SHINEd_Vase_Decorative copy.jpg","congruent","m",624.822821,"f","f","left","(148, 362)",221,1,623.418370669104,87.711758037993," 1012.87",207,4,1,1
"59",112,"right","SHINEd_CasketOpen.jpg","incongruent","m",626.747977,"f","f","left","(862, 362)",218,1,625.687380123349,89.9807674922385," 1259.72",349,4,1,1
"59",113,"left","SHINEd_Wheel_Steering.jpg","congruent","m",502.899024,"f","f","left","(148, 362)",185,1,502.182280577595,-33.524332053516,"  981.60",218,4,1,1
"59",114,"left","SHINEd_Bottle_Blue.jpg","congruent","m",684.482954,"f","f","left","(148, 362)",217,1,684.11006403184,148.403451400729," 1027.72",446,4,1,1
"59",115,"right","SHINEd_Hourglass.jpg","incongruent","m",560.976468,"f","f","left","(862, 362)",110,1,560.947431486086,25.2408188549748," 1461.89",257,1,0,0
"59",116,"right","SHINEd_Butterfly.jpg","congruent","n",499.911319,"j","j","right","(862, 362)",318,1,500.226135940331,-35.4804766907797,"  692.43",325,4,1,1
"59",117,"right","SHINEd_RollerBlade.jpg","incongruent","m",559.98987,"f","f","left","(862, 362)",178,1,560.648540394577,24.9419277634657," 1069.73",415,3,1,1
"59",118,"left","SHINEd_DogHouse.jpg","congruent","m",553.617859,"f","f","left","(148, 362)",165,1,554.620382848822,18.9137702177111," 4621.20",133,2,0,0
"59",119,"right","SHINEd_Teapot.jpg","incongruent","m",598.42522,"f","f","left","(862, 362)",214,1,599.771597303068,64.0649846719566," 2982.82",5,4,1,1
"59",120,"right","SHINEd_Fruit_Orange.jpg","congruent","n",633.163507,"j","j","right","(862, 362)",302,1,634.853737757313,99.147125126202," 2846.82",71,2,1,NA
"59",121,"right","SHINEd_ElectricOutlet.jpg","incongruent","m",516.374615,"f","f","left","(862, 362)",102,1,518.408699211558,-17.2979134195526,"  901.69",433,3,1,1
"59",122,"right","SHINEd_Bird_Pelican.jpg","congruent","n",393.652607,"j","j","right","(862, 362)",402,1,396.030544665804,-139.676067965307," 1947.61",168,4,1,1
"59",123,"left","SHINEd_Lychee.jpg","incongruent","n",510.26544,"j","j","right","(148, 362)",321,1,512.987231120049,-22.7193815110616,"  869.15",152,2,0,0
"59",124,"left","SHINEd_Carrot.jpg","incongruent","n",587.007402,"j","j","right","(148, 362)",281,1,590.073046574295,54.3664339431837," 1053.45",204,3,0,0
"59",125,"right","SHINEd_Nuts_Pecan.jpg","congruent","n",479.747291,"j","j","right","(862, 362)",246,1,483.15678902854,-52.5498236025707,"  960.12",105,1,0,0
"59",126,"right","SHINEd_Ball_Basketball.jpg","incongruent","m",548.38039,"j","f","left","(862, 362)",130,0,552.133741482786,16.4271288516747," 1020.00",407,4,0,0
"59",127,"left","SHINEd_DeepFryer.jpg","congruent","m",824.170164,"f","f","left","(148, 362)",161,1,828.267368937031,292.56075630592,"  926.89",122,4,1,1
"59",128,"right","SHINEd_Fryingpan.jpg","incongruent","m",474.446344,"f","f","left","(862, 362)",158,1,478.887402391277,-56.8192102398344,"  955.44",438,4,0,0
"59",129,"right","SHINEd_purple_yam.jpg","congruent","n",639.389924,"j","j","right","(862, 362)",442,1,644.174835845522,108.468223214411,"  910.63",23,3,1,1
"59",130,"left","SHINEd_cheetah.jpg","incongruent","n",406.719777,"j","j","right","(148, 362)",245,1,411.848542299767,-123.858070331344," 1093.01",362,4,1,1
"59",131,"left","SHINEd_Chair_High.jpg","congruent","m",564.009911,"f","f","left","(148, 362)",209,1,569.482529754013,33.7759171229019,"  764.57",346,3,0,0
"59",132,"right","SHINEd_SkullDeer.jpg","congruent","n",520.877155,"j","j","right","(862, 362)",278,1,526.693627208258,-9.01298542285268," 2526.33",189,4,0,0
"59",133,"left","SHINEd_Gorilla.jpg","incongruent","n",532.265462,"j","j","right","(148, 362)",285,1,538.425787662504,2.7191750313927,"  933.25",308,4,0,0
"59",134,"right","SHINEd_antlers.jpg","congruent","n",480.166946,"j","j","right","(862, 362)",418,1,486.671125116749,-49.0354875143618,"  910.66",138,4,1,1
"59",135,"left","SHINEd_artichoke.jpg","incongruent","n",490.473877,"j","j","right","(148, 362)",453,1,497.321909570995,-38.3847030601164," 1054.73",53,3,1,1
"59",136,"left","SHINEd_whale.jpg","incongruent","n",503.221645,"j","j","right","(148, 362)",421,1,510.41353102524,-25.2930816058709,"  900.77",271,4,1,1
"59",137,"right","SHINEd_Seashell_BayScallop.jpg","congruent","n",529.910236,"j","j","right","(862, 362)",270,1,537.445975479486,1.73936284837456," 1351.24",330,4,1,1
"59",138,"left","SHINEd_Clock_Radio.jpg","congruent","m",485.303874,"f","f","left","(148, 362)",93,1,493.183466933731,-42.52314569738,"  829.95",104,4,1,1
"59",139,"right","SHINEd_USBKey.jpg","incongruent","m",561.08947,"f","f","left","(862, 362)",90,1,569.312916387976,33.6063037568654,"  696.29",156,4,1,1
"59",140,"left","SHINEd_Colander.jpg","congruent","m",516.751749,"f","f","left","(148, 362)",41,1,525.319048842222,-10.3875637888892,"  946.62",353,4,0,0
"59",141,"left","SHINEd_brusselsprouts.jpg","incongruent","n",505.563098,"j","j","right","(148, 362)",265,1,514.474251296467,-21.2323613346437," 3092.38",197,3,0,0
"59",142,"left","SHINEd_fountain.jpg","congruent","m",548.80111,"f","f","left","(148, 362)",169,1,558.056116750713,22.3495041196017," 1052.80",185,4,0,0
"59",143,"right","SHINEd_Jacket_Suit.jpg","incongruent","m",545.565644,"f","f","left","(862, 362)",2,1,555.164504204958,19.4578915738472," 1740.82",14,3,1,1
"59",144,"left","SHINEd_Bowl_Wooden.jpg","congruent","m",437.578288,"f","f","left","(148, 362)",141,1,447.521001659204,-88.1856109719074," 1035.46",50,4,1,1
"59",145,"left","SHINEd_Mango.jpg","incongruent","n",504.303484,"j","j","right","(148, 362)",277,1,514.590051113449,-21.1165615176619," 2117.23",12,3,1,1
"59",146,"left","SHINEd_catcus.jpg","incongruent","n",450.941013,"j","j","right","(148, 362)",313,1,461.571433567694,-74.1351790634165,"  749.59",224,4,1,1
"59",147,"left","SHINEd_Cabinet_Display.jpg","congruent","m",496.169114,"f","f","left","(148, 362)",205,1,507.14338802194,-28.5632246091711,"  884.70",327,3,0,0
"59",148,"right","SHINEd_Calculator.jpg","incongruent","m",555.033933,"f","f","left","(862, 362)",94,1,566.352060476185,30.6454478450744," 1197.17",331,3,0,0
"59",149,"right","SHINEd_raccoon.jpg","congruent","n",429.894148,"j","j","right","(862, 362)",262,1,441.556128930431,-94.1504837006803," 4093.51",134,3,1,1
"59",150,"left","SHINEd_Carabiner_Orange.jpg","congruent","m",562.572646,"f","f","left","(148, 362)",29,1,574.578480384676,38.8718677535652," 1156.76",418,3,0,0
"59",151,"left","SHINEd_Jetski.jpg","congruent","m",518.922469,"f","f","left","(148, 362)",181,1,531.272156838922,-4.43445579218936,"  949.73",177,3,0,0
"59",152,"left","SHINEd_cottonplant.jpg","incongruent","n",455.517335,"j","j","right","(148, 362)",297,1,468.210876293167,-67.4957363379439," 7501.95",32,3,1,1
"59",153,"right","SHINEd_Boot_Rain.jpg","incongruent","m",529.501456,"f","f","left","(862, 362)",150,1,542.538850747413,6.83223811630151," 1301.91",101,3,0,0
"59",154,"right","SHINEd_manatee.jpg","congruent","n",524.897904,"j","j","right","(862, 362)",342,1,538.279152201658,2.57253957054702," 1051.17",245,2,1,NA
"59",155,"right","SHINEd_fox.jpg","congruent","n",488.517231,"j","j","right","(862, 362)",334,1,502.242332655903,-33.4642799752076," 1098.30",234,3,0,0
"59",156,"left","SHINEd_Drum_Bongos.jpg","congruent","m",597.386516,"f","f","left","(148, 362)",9,1,611.455471110149,75.7488584790379,"  963.29",258,4,0,0
"59",157,"right","SHINEd_Cheesegrater_Handheld.jpg","incongruent","m",NA,"miss","f","left","(862, 362)",162,0,NA,NA," 3141.58",87,4,0,0
"59",158,"left","SHINEd_Snail.jpg","incongruent","n",551.087916,"j","j","right","(148, 362)",241,1,565.84457801864,30.1379653875287,"  942.89",28,4,1,1
"59",159,"right","SHINEd_Dog_Bulldog.jpg","congruent","n",403.156399,"j","j","right","(862, 362)",326,1,418.256914472885,-117.449698158226," 1176.95",281,3,0,0
"59",160,"right","SHINEd_rose.jpg","congruent","n",375.340075,"j","j","right","(862, 362)",430,1,390.784443927131,-144.92216870398,"  846.86",157,4,1,1
"59",161,"right","SHINEd_Flashlight.jpg","incongruent","m",395.238573,"j","f","left","(862, 362)",98,0,411.026795381376,-124.679817249735," 1862.48",231,2,0,0
"59",162,"left","SHINEd_Cannon.jpg","congruent","m",503.006581,"f","f","left","(148, 362)",61,1,519.138656835622,-16.5679557954895," 1083.74",441,1,0,0
"59",163,"right","SHINEd_accordion.jpg","incongruent","m",532.289502,"f","f","left","(862, 362)",10,1,548.765431289867,13.0588186587559," 1012.04",343,4,1,1
"59",164,"right","SHINEd_lotusroot.jpg","congruent","n",929.661234,"j","j","right","(862, 362)",298,1,946.481016744113,410.774404113001," 1460.76",77,3,0,0
"59",165,"left","SHINEd_horse.jpg","incongruent","n",452.915102,"j","j","right","(148, 362)",269,1,470.078738198358,-65.6278744327532," 5534.56",199,4,1,1
"59",166,"right","SHINEd_DustPan.jpg","incongruent","m",463.694313,"f","f","left","(862, 362)",54,1,481.201802652603,-54.5048099785077," 3515.71",363,2,0,0
"59",167,"right","SHINEd_Pumpkin.jpg","congruent","n",420.108114,"j","j","right","(862, 362)",294,1,437.959457106849,-97.7471555242623," 1118.65",211,4,1,1
"59",168,"right","SHINEd_Bicycle_Kids.jpg","incongruent","m",406.789743,"f","f","left","(862, 362)",26,1,424.984939561094,-110.721673070017," 1091.02",341,3,0,0
"59",169,"right","SHINEd_honeydew.jpg","congruent","n",458.779855,"j","j","right","(862, 362)",330,1,477.31890501534,-58.3877076157714,"  836.92",175,4,1,1
"59",170,"left","SHINEd_MusicSheet.jpg","congruent","m",502.168669,"f","f","left","(148, 362)",13,1,521.051572469585,-14.655040161526," 1021.48",225,4,1,1
"59",171,"right","SHINEd_spinach.jpg","congruent","n",383.018167,"j","j","right","(862, 362)",266,1,402.24492392383,-133.461688707281," 1986.08",4,4,1,1
"59",172,"left","SHINEd_Fish_Rockbass.jpg","incongruent","n",524.497614,"j","j","right","(148, 362)",341,1,544.068224378076,8.3616117469649,"  774.13",125,4,1,1
"59",173,"right","SHINEd_durian.jpg","congruent","n",439.180677,"j","j","right","(862, 362)",374,1,459.095140832321,-76.6114717987897,"  837.37",129,4,1,1
"59",174,"right","SHINEd_Beater_Electric.jpg","incongruent","m",515.237117,"f","f","left","(862, 362)",42,1,535.495434286567,-0.211178344544207," 1068.54",422,4,0,0
"59",175,"left","SHINEd_BusStop.jpg","congruent","m",391.59712,"f","f","left","(148, 362)",145,1,412.199290740812,-123.507321890299,"  911.61",291,3,0,0
"59",176,"right","SHINEd_Dragonfly.jpg","congruent","n",546.293164,"f","j","right","(862, 362)",346,0,567.239188195058,31.5325755639467," 1251.84",381,2,0,0
"59",177,"left","SHINEd_Oyster.jpg","incongruent","n",664.554694,"j","j","right","(148, 362)",433,1,685.844571649303,150.137959018192," 1013.78",143,4,1,1
"59",178,"left","SHINEd_Dice.jpg","congruent","m",499.811583,"f","f","left","(148, 362)",89,1,521.445314103549,-14.2612985275625,"  979.64",449,4,1,1
"59",179,"right","SHINEd_Weights_Dumbells.jpg","incongruent","m",524.772793,"f","f","left","(862, 362)",22,1,546.750377557794,11.043764926683," 1029.24",79,4,1,1
"59",180,"left","SHINEd_HairDryer.jpg","congruent","m",559.726591,"j","f","left","(148, 362)",45,0,582.048029012039,46.3414163809284,"  877.83",144,4,1,1
"59",181,"right","SHINEd_Gecko.jpg","congruent","n",684.165575,"j","j","right","(862, 362)",370,1,706.830866466285,171.124253835174,"  628.69",163,4,1,1
"59",182,"left","SHINEd_Turtle.jpg","incongruent","n",831.106861,"j","j","right","(148, 362)",305,1,854.11600592053,318.409393289419," 1237.60",57,4,1,1
"59",183,"right","SHINEd_skunk.jpg","congruent","n",387.377923,"j","j","right","(862, 362)",290,1,410.730921374776,-124.975691256335," 1099.34",137,2,0,0
"59",184,"left","SHINEd_Leek.jpg","incongruent","n",461.607226,"j","j","right","(148, 362)",357,1,485.304077829021,-50.4025348020898," 1133.69",41,3,1,1
"59",185,"right","SHINEd_Lips_Real.jpg","congruent","n",554.486756,"f","j","right","(862, 362)",390,0,578.527461283267,42.8208486521556,"  927.41",339,4,1,1
"59",186,"right","SHINEd_Bathtub.jpg","incongruent","m",575.121856,"f","f","left","(862, 362)",58,1,599.506414737512,63.799802106401,"  990.08",66,4,1,1
"59",187,"left","SHINEd_ChainRusty.jpg","congruent","m",625.4869,"f","f","left","(148, 362)",21,1,650.215312191758,114.508699560646,"  949.46",452,4,1,1
"59",188,"left","SHINEd_Lilypad.jpg","incongruent","n",514.289442,"j","j","right","(148, 362)",413,1,539.361707646003,3.65509501489194,"  774.35",405,4,1,1
"59",189,"left","SHINEd_Bird_Eagle.jpg","incongruent","n",461.545422,"j","j","right","(148, 362)",257,1,486.961541100248,-48.7450715308627,"  741.05",378,4,1,1
"59",190,"left","SHINEd_ShoppingCart.jpg","congruent","m",466.263923,"f","f","left","(148, 362)",109,1,492.023895554494,-43.6827170766172,"  660.02",399,4,0,0
"59",191,"left","SHINEd_Bleachers.jpg","congruent","m",598.07966,"f","f","left","(148, 362)",133,1,624.183486008739,88.4768733776282,"  853.59",425,3,0,0
"59",192,"right","SHINEd_Mask_HockeyGoalie.jpg","incongruent","m",545.134492,"f","f","left","(862, 362)",126,1,571.582171462985,35.8755588318737," 1155.70",355,4,1,1
"59",193,"left","SHINEd_worm.jpg","incongruent","n",547.735119,"j","j","right","(148, 362)",389,1,574.52665191723,38.8200392861192,"  820.99",145,4,1,1
"59",194,"left","SHINEd_Bottle_Beer.jpg","congruent","m",447.361938,"f","f","left","(148, 362)",213,1,474.497324371476,-61.2092882596354,"  805.96",296,4,0,0
"59",195,"left","SHINEd_vanillabean copy.jpg","incongruent","n",458.489639,"j","j","right","(148, 362)",329,1,485.968878825721,-49.73773380539," 5293.38",232,2,0,0
"59",196,"left","SHINEd_BasketballHoop.jpg","congruent","m",543.920604,"f","f","left","(148, 362)",129,1,571.743697279967,36.0370846488555,"  634.64",427,4,1,1
"59",197,"left","SHINEd_BicycleChain.jpg","congruent","m",460.189113,"f","f","left","(148, 362)",17,1,488.356059734212,-47.3505528968991," 1421.55",274,3,1,1
"59",198,"left","SHINEd_Kettle.jpg","congruent","m",527.536547,"f","f","left","(148, 362)",157,1,556.047347188457,20.3407345573464," 1064.49",142,2,0,0
"59",199,"right","SHINEd_Slippers.jpg","incongruent","m",657.883213,"f","f","left","(862, 362)",154,1,686.737866642703,151.031254011592," 1118.27",60,4,1,1
"59",200,"left","SHINEd_Desk_School.jpg","congruent","m",517.374083,"f","f","left","(148, 362)",201,1,546.572590096948,10.8659774658373," 1172.54",369,4,0,0
"59",201,"right","SHINEd_red_Cabbage.jpg","congruent","n",529.179329,"j","j","right","(862, 362)",230,1,558.721689551194,23.0150769200827," 1309.03",121,4,1,1
"59",202,"right","SHINEd_Bucket_Rusty.jpg","incongruent","m",725.523993,"f","f","left","(862, 362)",34,1,755.410207005439,219.703594374328," 1108.80",99,3,1,1
"59",203,"left","SHINEd_BowlingPin.jpg","congruent","m",529.352114,"f","f","left","(148, 362)",25,1,559.582181459685,23.8755688285736," 1374.24",92,2,0,0
"59",204,"left","SHINEd_Makeup_Compact.jpg","congruent","m",516.865292,"f","f","left","(148, 362)",121,1,547.43921291393,11.7326002828189," 1317.16",454,3,0,0
"59",205,"left","SHINEd_frog.jpg","incongruent","n",761.547781,"j","j","right","(148, 362)",345,1,792.465555368176,256.758942737064," 1316.46",367,3,0,0
"59",206,"right","SHINEd_Drill.jpg","incongruent","m",427.708185,"f","f","left","(862, 362)",30,1,458.969812822421,-76.7367998086901," 1300.66",455,2,1,NA
"59",207,"right","SHINEd_rabbitt.jpg","congruent","n",463.403538,"j","j","right","(862, 362)",350,1,495.009019276666,-40.6975933544447,"  775.00",84,4,1,1
"59",208,"right","SHINEd_Swing_Child.jpg","incongruent","m",411.10839,"f","f","left","(862, 362)",166,1,443.057724730912,-92.6488879001993,"  916.38",120,4,1,1
"59",209,"left","SHINEd_mosquito.jpg","incongruent","n",381.71165,"j","j","right","(148, 362)",393,1,414.004838185157,-121.701774445954," 1100.87",38,4,1,1
"59",210,"left","SHINEd_Gametable_AirHockey.jpg","congruent","m",584.839152,"f","f","left","(148, 362)",85,1,617.476193639403,81.7695810082916,"  877.79",210,4,1,1
"59",211,"left","SHINEd_Bells_Christmas.jpg","congruent","m",469.96002,"f","f","left","(148, 362)",225,1,502.940915093648,-32.765697537463," 1246.94",149,4,1,1
"59",212,"right","SHINEd_ClothCoaster.jpg","incongruent","m",473.397236,"f","f","left","(862, 362)",142,1,506.721984547894,-28.9846280832175," 1004.98",408,4,1,1
"59",213,"right","SHINEd_PictureFrame.jpg","incongruent","m",571.47658,"f","f","left","(862, 362)",222,1,605.145182002139,69.4385693710279,"  917.33",214,3,0,0
"59",214,"right","SHINEd_Lynx.jpg","congruent","n",406.864274,"j","j","right","(862, 362)",438,1,440.876729456384,-94.8298831747266," 1438.77",305,3,1,1
"59",215,"right","SHINEd_Cane_Metal.jpg","incongruent","m",539.499599,"f","f","left","(862, 362)",190,1,573.85590791063,38.1492952795188," 1364.79",67,3,0,0
"59",216,"right","SHINEd_PencilSharpener.jpg","incongruent","m",429.925848,"f","f","left","(862, 362)",74,1,464.626010364875,-71.0806022662358,"  774.17",302,4,0,0
"59",217,"left","SHINEd_Mattress.jpg","congruent","m",554.093706,"f","f","left","(148, 362)",49,1,589.137721819121,53.4311091880097," 1124.57",417,3,1,1
"59",218,"left","SHINEd_platypus.jpg","incongruent","n",525.911757,"f","j","right","(148, 362)",293,0,561.299626273366,25.5930136422551,"  894.50",186,4,0,0
"59",219,"left","SHINEd_Elephant.jpg","incongruent","n",400.084703,"j","j","right","(148, 362)",349,1,435.816425727612,-99.8901869034994,"  854.89",27,4,1,1
"59",220,"right","SHINEd_brownbeans.jpg","congruent","n",557.326326,"j","j","right","(862, 362)",366,1,593.401902181857,57.695289550746," 1261.21",229,2,0,0
"59",221,"left","SHINEd_DoorKnob.jpg","congruent","m",496.944546,"f","f","left","(148, 362)",53,1,533.363975636103,-2.34263699500855,"  860.39",390,1,0,0
"59",222,"left","SHINEd_Hat_Baseball.jpg","congruent","m",467.954518,"f","f","left","(148, 362)",189,1,504.717801090348,-30.9888115407631," 1059.91",345,4,1,1
"59",223,"left","SHINEd_FileDivider.jpg","congruent","m",455.856921,"f","f","left","(148, 362)",69,1,492.964057544593,-42.7425550865177," 1262.02",34,3,1,1
"59",224,"left","SHINEd_goldenberry.jpg","incongruent","n",553.930954,"j","j","right","(148, 362)",397,1,591.381943998839,55.6753313677278,"  981.46",22,4,0,0
"59",225,"right","SHINEd_Nail.jpg","incongruent","m",532.482151,"f","f","left","(862, 362)",38,1,570.276994453084,34.5703818219732," 1120.28",235,3,0,0
"59",226,"left","SHINEd_Skates.jpg","congruent","m",719.968539,"j","f","left","(148, 362)",125,0,758.10723590733,222.400623276219," 1853.86",64,2,0,0
"59",227,"left","SHINEd_Paw.jpg","incongruent","n",444.082881,"j","j","right","(148, 362)",301,1,482.565431361575,-53.1411812695359,"  851.17",344,4,1,1
"59",228,"left","SHINEd_Toad.jpg","incongruent","n",552.759497,"j","j","right","(148, 362)",441,1,591.585900815821,55.8792881847095,"  684.76",228,4,1,1
