"participant","trial_index","screenposition","stimulus","trialtype","classifyenc","rt","response","responsecorrect","responsecorrect_side","screenlocation","stimnum","acc","rtResidual","rtResidualC","rt_rec","trialno_rec","ratingConfidence","acc_rec","memoryHits.hc"
"60",1,"left","SHINEd_Helmet_Bicycle.jpg","incongruent","m",930.42546,"j","j","right","(148, 362)",18,1,900.698835173716,336.677628319733," 4057.77",188,3,0,0
"60",2,"left","SHINEd_Tomato.jpg","congruent","n",596.916182,"f","f","left","(148, 362)",450,1,567.452944369798,3.43173751581532," 1201.40",339,1,0,0
"60",3,"right","SHINEd_Bottle_Beer.jpg","congruent","m",456.325907,"j","j","right","(862, 362)",213,1,427.126056565891,-136.895150288091," 1216.81",52,4,0,0
"60",4,"left","SHINEd_Briefcase_Leather.jpg","incongruent","m",451.274851,"j","j","right","(148, 362)",210,1,422.338387761984,-141.682819091999," 1845.15",18,2,1,NA
"60",5,"right","SHINEd_HotWaterBottle.jpg","congruent","m",536.378872,"j","j","right","(862, 362)",113,1,507.705795958077,-56.3154108959056," 2288.74",123,3,1,1
"60",6,"left","SHINEd_Swing_Child.jpg","incongruent","m",514.690822,"j","j","right","(148, 362)",166,1,486.28113315417,-77.7400736998126,"  996.56",278,3,0,0
"60",7,"right","SHINEd_Bells_Christmas.jpg","congruent","m",606.290216,"j","j","right","(862, 362)",225,1,578.143914350263,14.1227074962803," 1229.01",156,3,0,0
"60",8,"left","SHINEd_Flashlight.jpg","incongruent","m",481.265721,"j","j","right","(148, 362)",98,1,453.382806546356,-110.638400307627," 1305.41",222,2,1,NA
"60",9,"left","SHINEd_Dragonfly.jpg","congruent","n",446.267318,"f","f","left","(148, 362)",346,1,418.647790742448,-145.373416111534,"  894.86",372,3,1,1
"60",10,"right","SHINEd_Lychee.jpg","incongruent","n",537.824425,"f","f","left","(862, 362)",321,1,510.468284938542,-53.5529219154409," 1500.83",367,3,1,1
"60",11,"right","SHINEd_Dice.jpg","congruent","m",459.767094,"j","j","right","(862, 362)",89,1,432.674341134634,-131.346865719348," 1110.68",118,3,1,1
"60",12,"right","SHINEd_WatermelonSlice.jpg","incongruent","n",520.798696,"f","f","left","(862, 362)",325,1,493.969330330727,-70.051876523255," 1301.56",256,4,0,0
"60",13,"right","SHINEd_Ruler_Wooden.jpg","congruent","m",341.909986,"j","j","right","(862, 362)",73,1,315.34400752682,-248.677199327162,"  965.12",296,2,0,0
"60",14,"right","SHINEd_mizuna.jpg","incongruent","n",666.689104,"f","f","left","(862, 362)",429,1,640.386512722913,76.365305868931," 1545.65",74,2,0,0
"60",15,"right","SHINEd_DeepFryer.jpg","congruent","m",429.409248,"j","j","right","(862, 362)",161,1,403.370043919006,-160.651162934976," 1814.51",116,2,1,NA
"60",16,"left","SHINEd_DustPan.jpg","incongruent","m",536.953573,"j","j","right","(148, 362)",54,1,511.177756115099,-52.8434507388832," 1247.36",122,2,0,0
"60",17,"right","SHINEd_Makeup_Compact.jpg","congruent","m",621.217229,"f","j","right","(862, 362)",121,0,595.704799311192,31.6835924572097," 1604.88",171,3,0,0
"60",18,"right","SHINEd_okapi.jpg","incongruent","n",536.117097,"f","f","left","(862, 362)",425,1,510.868054507285,-53.1531523466974," 1565.30",25,3,1,1
"60",19,"left","SHINEd_TissueBox.jpg","incongruent","m",675.541239,"j","j","right","(148, 362)",50,1,650.555583703378,86.5343768493956," 1522.73",35,4,1,1
"60",20,"right","SHINEd_Colander.jpg","congruent","m",509.674852,"j","j","right","(862, 362)",41,1,484.952583899471,-79.0686229545115," 1189.93",336,2,1,NA
"60",21,"left","SHINEd_Door_Green.jpg","incongruent","m",522.341075,"j","j","right","(148, 362)",106,1,497.882194095564,-66.1390127584185," 1044.77",126,4,1,1
"60",22,"right","SHINEd_Quartz.jpg","incongruent","n",893.549018,"f","f","left","(862, 362)",401,1,869.353524291657,305.332317437674," 1295.72",231,4,1,1
"60",23,"left","SHINEd_Goat.jpg","congruent","n",608.782134,"f","f","left","(148, 362)",322,1,584.85002748775,20.8288206337674,"  790.67",233,4,1,1
"60",24,"right","SHINEd_Leaf_Clover.jpg","incongruent","n",539.472185,"f","f","left","(862, 362)",449,1,515.803465683843,-48.2177411701397," 2285.06",326,1,0,0
"60",25,"right","SHINEd_DentalFloss.jpg","congruent","m",573.233509,"j","j","right","(862, 362)",117,1,549.828176879936,-14.1930299740467," 1120.33",202,3,0,0
"60",26,"right","SHINEd_Leek.jpg","incongruent","n",664.621192,"f","f","left","(862, 362)",357,1,641.479247076029,77.4580402220462,"  775.88",215,4,1,1
"60",27,"left","SHINEd_Bird_Pelican.jpg","congruent","n",652.963461,"f","f","left","(148, 362)",402,1,630.084903272122,66.0636964181392," 1413.94",448,2,1,NA
"60",28,"left","SHINEd_Butterfly.jpg","congruent","n",575.455366,"f","f","left","(148, 362)",318,1,552.840195468214,-11.1810113857679," 1357.49",97,1,0,0
"60",29,"left","SHINEd_Bench_Black.jpg","incongruent","m",451.632779,"j","j","right","(148, 362)",206,1,429.280995664307,-134.740211189675," 2767.24",412,1,0,0
"60",30,"left","SHINEd_raccoon.jpg","congruent","n",455.396044,"f","f","left","(148, 362)",262,1,433.3076478604,-130.713558993582," 1825.18",91,2,0,0
"60",31,"right","SHINEd_brusselsprouts.jpg","incongruent","n",466.077924,"f","f","left","(862, 362)",265,1,444.252915056493,-119.768291797489," 9871.78",405,3,0,0
"60",32,"right","SHINEd_pickle.jpg","incongruent","n",478.857888,"f","f","left","(862, 362)",373,1,457.296266252586,-106.724940601396," 1061.37",298,4,1,1
"60",33,"left","SHINEd_Lynx.jpg","congruent","n",530.715418,"f","f","left","(148, 362)",438,1,509.417183448679,-54.6040234053032," 1670.47",119,3,0,0
"60",34,"left","SHINEd_Drill.jpg","incongruent","m",564.49693,"j","j","right","(148, 362)",30,1,543.462082644772,-20.5591242092102," 1060.68",77,2,1,NA
"60",35,"right","SHINEd_Magnifying_Glass.jpg","congruent","m",577.739795,"j","j","right","(862, 362)",105,1,556.968334840865,-7.05287201311736," 1224.85",54,4,0,0
"60",36,"left","SHINEd_couch.jpg","incongruent","m",660.903662,"j","j","right","(148, 362)",202,1,640.395589036958,76.3743821829757," 1397.61",403,3,0,0
"60",37,"left","SHINEd_eucalyptus.jpg","congruent","n",441.373368,"f","f","left","(148, 362)",282,1,421.128682233051,-142.892524620931,"  908.70",161,1,0,0
"60",38,"right","SHINEd_catcus.jpg","incongruent","n",459.832461,"f","f","left","(862, 362)",313,1,439.851162429144,-124.170044424838," 2430.39",191,2,0,0
"60",39,"left","SHINEd_treestump.jpg","congruent","n",575.627074,"f","f","left","(148, 362)",414,1,555.909162625237,-8.11204422874555," 1032.61",138,4,1,1
"60",40,"left","SHINEd_discoball.jpg","incongruent","m",587.256661,"j","j","right","(148, 362)",226,1,567.80213682133,3.78092996734741," 1182.15",357,4,1,1
"60",41,"left","SHINEd_antlers.jpg","congruent","n",503.92006,"f","f","left","(148, 362)",418,1,484.728923017423,-79.2922838365597," 1091.57",417,4,1,1
"60",42,"right","SHINEd_Gorilla.jpg","incongruent","n",658.576567,"f","f","left","(862, 362)",285,1,639.648817213516,75.6276103595332," 1405.79",352,3,1,1
"60",43,"right","SHINEd_RecordPlayer.jpg","congruent","m",637.752832,"j","j","right","(862, 362)",149,1,619.088469409609,55.0672625556262," 4774.24",184,3,1,1
"60",44,"right","SHINEd_Carrot.jpg","incongruent","n",618.256937,"f","f","left","(862, 362)",281,1,599.855961605702,35.8347547517192,"  928.93",332,4,1,1
"60",45,"right","SHINEd_Oyster.jpg","incongruent","n",916.992555,"f","f","left","(862, 362)",433,1,898.854966801794,334.833759947812," 2238.65",23,4,1,1
"60",46,"right","SHINEd_Boat_Colourful.jpg","congruent","m",745.053338,"j","j","right","(862, 362)",173,1,727.179136997887,163.157930143905," 1070.71",134,3,1,1
"60",47,"right","SHINEd_Dog_ChowChow.jpg","incongruent","n",483.88219,"f","f","left","(862, 362)",369,1,466.27137619398,-97.749830660002," 1358.94",206,4,1,1
"60",48,"right","SHINEd_artichoke.jpg","incongruent","n",463.019101,"f","f","left","(862, 362)",453,1,445.671674390073,-118.349532463909," 1624.52",56,4,1,1
"60",49,"right","SHINEd_FlipFlop_PairBlue.jpg","congruent","m",522.89145,"j","j","right","(862, 362)",153,1,505.807410586166,-58.2137962678162," 2492.45",430,3,1,1
"60",50,"left","SHINEd_Lipstick.jpg","incongruent","m",511.360483,"j","j","right","(148, 362)",198,1,494.539830782259,-69.4813760717232," 1080.68",436,3,0,0
"60",51,"left","SHINEd_Cat.jpg","congruent","n",506.488119,"f","f","left","(148, 362)",362,1,489.930853978352,-74.0903528756303," 1355.16",70,4,1,1
"60",52,"right","SHINEd_Mattress.jpg","congruent","m",630.020245,"j","j","right","(862, 362)",49,1,613.726367174445,49.7051603204627," 6052.87",110,3,1,1
"60",53,"right","SHINEd_Bird_Parrot.jpg","incongruent","n",529.954077,"f","f","left","(862, 362)",233,1,513.923586370538,-50.0976204834444," 1048.58",300,3,1,1
"60",54,"right","SHINEd_fountain.jpg","congruent","m",501.575855,"j","j","right","(862, 362)",169,1,485.808751566631,-78.2124552873514," 1165.22",350,3,1,1
"60",55,"left","SHINEd_Nail.jpg","incongruent","m",544.55751,"j","j","right","(148, 362)",38,1,529.053793762724,-34.9674130912585," 1112.49",451,3,1,1
"60",56,"right","SHINEd_dragonfruit.jpg","incongruent","n",547.102256,"f","f","left","(862, 362)",437,1,531.861926958817,-32.1592798951655," 1185.91",131,3,1,1
"60",57,"left","SHINEd_Radish.jpg","congruent","n",558.227638,"f","f","left","(148, 362)",242,1,543.25069615491,-20.7705106990726," 1430.92",329,2,0,0
"60",58,"left","SHINEd_Slippers.jpg","incongruent","m",682.037234,"j","j","right","(148, 362)",154,1,667.323679351003,103.30247249702," 1764.42",364,2,1,NA
"60",59,"right","SHINEd_Skates.jpg","congruent","m",710.199556,"j","j","right","(862, 362)",125,1,695.749388547096,131.728181693113," 1247.89",150,4,1,1
"60",60,"left","SHINEd_Teapot.jpg","incongruent","m",473.398633,"j","j","right","(148, 362)",214,1,459.211852743189,-104.809354110794," 1099.31",398,1,0,0
"60",61,"right","SHINEd_Turtle.jpg","incongruent","n",701.003108,"f","f","left","(862, 362)",305,1,687.079714939282,123.058508085299," 1590.23",381,2,1,NA
"60",62,"right","SHINEd_Camera_Video.jpg","congruent","m",496.760919,"j","j","right","(862, 362)",97,1,483.100913135374,-80.9202937186079," 2469.96",286,2,0,0
"60",63,"right","SHINEd_white_strawberries.jpg","incongruent","n",579.37939,"f","f","left","(862, 362)",417,1,565.982771331467,1.96156447748501," 1199.76",58,2,1,NA
"60",64,"left","SHINEd_RamAnimal.jpg","congruent","n",607.870272,"f","f","left","(148, 362)",454,1,594.73704052756,30.715833673578," 1103.56",66,4,1,1
"60",65,"right","SHINEd_orchid.jpg","incongruent","n",668.225469,"f","f","left","(862, 362)",261,1,655.355624723653,91.3344178696709," 2483.68",10,2,0,0
"60",66,"left","SHINEd_brownbeans.jpg","congruent","n",615.118655,"f","f","left","(148, 362)",366,1,602.512197919746,38.4909910657639," 1186.43",95,3,1,1
"60",67,"right","SHINEd_starfruit.jpg","incongruent","n",548.629007,"f","f","left","(862, 362)",317,1,536.285937115839,-27.7352697381432," 3028.08",2,3,0,0
"60",68,"left","SHINEd_Box_Notepaper.jpg","incongruent","m",592.277837,"j","j","right","(148, 362)",70,1,580.198154311932,16.1769474579497," 1293.86",261,3,0,0
"60",69,"left","SHINEd_skeleton-lizard.jpg","congruent","n",451.041717,"f","f","left","(148, 362)",250,1,439.225421508025,-124.795785345957," 1100.34",371,3,1,1
"60",70,"left","SHINEd_Clarinet.jpg","incongruent","m",760.215118,"j","j","right","(148, 362)",6,1,748.662209704118,184.641002850136," 1207.59",88,3,0,0
"60",71,"right","SHINEd_Wheel_Steering.jpg","congruent","m",747.749898,"j","j","right","(862, 362)",185,1,736.460376900211,172.439170046229," 1062.66",281,3,0,0
"60",72,"left","SHINEd_Clip_Paper.jpg","incongruent","m",709.418099,"j","j","right","(148, 362)",66,1,698.391965096304,134.370758242322," 1225.11",159,1,0,0
"60",73,"right","SHINEd_Gametable_AirHockey.jpg","congruent","m",554.138977,"j","j","right","(862, 362)",85,1,543.376230292397,-20.6449765615856," 2564.79",392,3,1,1
"60",74,"left","SHINEd_ElectricOutlet.jpg","incongruent","m",493.800028,"j","j","right","(148, 362)",102,1,483.30066848849,-80.7205383654926," 1190.86",43,4,1,1
"60",75,"right","SHINEd_Vase_Decorative copy.jpg","congruent","m",641.459852,"j","j","right","(862, 362)",221,1,631.223879684583,67.2026728306003," 1182.53",308,2,1,NA
"60",76,"left","SHINEd_Feet.jpg","congruent","n",475.542155,"f","f","left","(148, 362)",310,1,465.569569880676,-98.4516369733067," 1199.42",153,4,1,1
"60",77,"left","SHINEd_MobilityScooter.jpg","incongruent","m",583.378639,"j","j","right","(148, 362)",182,1,573.669441076769,9.64823422278627," 2163.64",318,2,0,0
"60",78,"right","SHINEd_Escalator.jpg","congruent","m",618.237656,"j","j","right","(862, 362)",177,1,608.791845272862,44.7706384188792," 1391.53",146,1,0,0
"60",79,"right","SHINEd_dinosaur fossil.jpg","incongruent","n",542.273711,"f","f","left","(862, 362)",377,1,533.091287468955,-30.9299193850278,"  958.46",290,3,1,1
"60",80,"right","SHINEd_HairDryer.jpg","congruent","m",562.099916,"j","j","right","(862, 362)",45,1,553.180879665047,-10.8403271889349," 3617.83",76,3,1,1
"60",81,"right","SHINEd_koala.jpg","incongruent","n",605.026374,"f","f","left","(862, 362)",365,1,596.37072486114,32.349518007158," 1103.32",36,3,1,1
"60",82,"right","SHINEd_Pacifier.jpg","congruent","m",520.660496,"j","j","right","(862, 362)",81,1,512.268234057233,-51.7529727967491," 1231.56",173,4,0,0
"60",83,"right","SHINEd_catfish.jpg","incongruent","n",749.405781,"f","f","left","(862, 362)",361,1,741.276906253326,177.255699399344," 1276.83",319,1,0,0
"60",84,"left","SHINEd_purple_yam.jpg","congruent","n",800.544808,"f","f","left","(148, 362)",442,1,792.679320449419,228.658113595437," 5527.55",44,4,1,1
"60",85,"right","SHINEd_frog.jpg","incongruent","n",772.362225,"f","f","left","(862, 362)",345,1,764.760124645512,200.73891779153," 3769.08",251,3,0,0
"60",86,"left","SHINEd_avocado.jpg","congruent","n",561.022359,"f","f","left","(148, 362)",394,1,553.683645841605,-10.3375610123772,"  943.56",375,4,1,1
"60",87,"left","SHINEd_pomegrant.jpg","congruent","n",500.109528,"f","f","left","(148, 362)",354,1,493.034202037698,-70.9870048162843," 1028.41",266,3,1,1
"60",88,"left","SHINEd_Mask_HockeyGoalie.jpg","incongruent","m",543.88654,"j","j","right","(148, 362)",126,1,537.074601233791,-26.9466056201914," 1176.40",284,2,0,0
"60",89,"right","SHINEd_Drum_Bongos.jpg","congruent","m",906.45222,"j","j","right","(862, 362)",9,1,899.903668429884,335.882461575902," 1093.31",210,4,1,1
"60",90,"right","SHINEd_soil.jpg","incongruent","n",685.577624,"f","f","left","(862, 362)",289,1,679.292459625977,115.271252771995,"  990.04",274,4,1,1
"60",91,"right","SHINEd_goldenberry.jpg","incongruent","n",689.481461,"f","f","left","(862, 362)",397,1,683.45968382207,119.438476968087," 2336.72",289,2,0,0
"60",92,"left","SHINEd_greenapple.jpg","congruent","n",493.257453,"f","f","left","(148, 362)",410,1,487.499063018163,-76.5221438358196," 2645.33",204,2,0,0
"60",93,"right","SHINEd_horse.jpg","incongruent","n",569.814033,"f","f","left","(862, 362)",269,1,564.319030214256,0.297823360273316," 1790.68",248,3,0,0
"60",94,"left","SHINEd_hyena.jpg","congruent","n",517.649037,"f","f","left","(148, 362)",422,1,512.417421410349,-51.6037854436337," 3238.14",30,2,0,0
"60",95,"right","SHINEd_platypus.jpg","incongruent","n",545.137019,"f","f","left","(862, 362)",293,1,540.168790606442,-23.8524162475408," 1281.93",65,4,0,0
"60",96,"right","SHINEd_Paw.jpg","incongruent","n",483.341418,"f","f","left","(862, 362)",301,1,478.636576802534,-85.3846300514479," 1263.62",67,4,0,0
"60",97,"left","SHINEd_lotusroot.jpg","congruent","n",559.703187,"f","f","left","(148, 362)",298,1,555.261732998627,-8.75947385535496," 1312.23",230,3,1,1
"60",98,"left","SHINEd_Weights_Dumbells.jpg","incongruent","m",579.819099,"j","j","right","(148, 362)",22,1,575.64103219472,11.6198253407381," 1168.73",232,4,1,1
"60",99,"left","SHINEd_Pumpkin.jpg","congruent","n",526.806934,"f","f","left","(148, 362)",294,1,522.892254390813,-41.1289524631691," 2565.38",9,4,1,1
"60",100,"left","SHINEd_Boot_Rain.jpg","incongruent","m",523.214958,"j","j","right","(148, 362)",150,1,519.563665586906,-44.4575412670761," 1393.44",194,2,0,0
"60",101,"left","SHINEd_Fryingpan.jpg","incongruent","m",551.036818,"j","j","right","(148, 362)",158,1,547.648912782999,-16.3722940709831," 1044.12",411,2,0,0
"60",102,"left","SHINEd_grasshopper.jpg","congruent","n",505.070629,"f","f","left","(148, 362)",286,1,501.946110979092,-62.0750958748902," 1792.56",103,3,1,1
"60",103,"right","SHINEd_whale.jpg","incongruent","n",535.115416,"f","f","left","(862, 362)",421,1,532.254285175185,-31.7669216787973," 1134.50",197,2,0,0
"60",104,"left","SHINEd_Fruit_Orange.jpg","congruent","n",593.823173,"f","f","left","(148, 362)",302,1,591.225429371278,27.2042225172957," 1023.91",237,3,1,1
"60",105,"left","SHINEd_Cantaloupe.jpg","congruent","n",950.404577,"f","f","left","(148, 362)",338,1,948.070220567371,384.049013713389,"  868.77",380,4,1,1
"60",106,"right","SHINEd_Tree_Fir.jpg","incongruent","n",584.81021,"f","f","left","(862, 362)",229,1,582.739240763464,18.7180339094815," 1437.26",424,1,0,0
"60",107,"left","SHINEd_Nuts_Pecan.jpg","congruent","n",507.726019,"f","f","left","(148, 362)",246,1,505.918436959557,-58.1027698944255,"  949.43",418,4,1,1
"60",108,"right","SHINEd_Giraffe.jpg","incongruent","n",471.215586,"f","f","left","(862, 362)",381,1,469.67139115565,-94.3498156983326,"  930.83",312,4,1,1
"60",109,"left","SHINEd_SkullDeer.jpg","congruent","n",556.466751,"f","f","left","(148, 362)",278,1,555.185943351743,-8.83526350223957,"  901.50",456,4,1,1
"60",110,"right","SHINEd_mosquito.jpg","incongruent","n",510.340126,"f","f","left","(862, 362)",393,1,509.322705547836,-54.6985013061467," 2191.23",192,3,0,0
"60",111,"right","SHINEd_Pants_Firefighter.jpg","congruent","m",617.696378,"j","j","right","(862, 362)",1,1,616.942344743929,52.9211378899463,"  920.03",104,4,1,1
"60",112,"left","SHINEd_Heater_Outdoor.jpg","incongruent","m",589.295401,"j","j","right","(148, 362)",170,1,588.804754940022,24.7835480860392," 2038.02",264,2,0,0
"60",113,"right","SHINEd_Carabiner_Orange.jpg","congruent","m",594.530642,"j","j","right","(862, 362)",29,1,594.303383136114,30.2821762821321,"  945.66",438,4,1,1
"60",114,"left","SHINEd_mushroom_other.jpg","congruent","n",484.918856,"f","f","left","(148, 362)",426,1,484.954984332207,-79.0662225217749," 2042.07",32,2,0,0
"60",115,"right","SHINEd_Elephant.jpg","incongruent","n",464.904035,"f","f","left","(862, 362)",349,1,465.2035505283,-98.8176563256819,"  999.58",198,4,1,1
"60",116,"right","SHINEd_Hat_Baseball.jpg","congruent","m",613.273431,"j","j","right","(862, 362)",189,1,613.836333724393,49.8151268704109," 3645.13",383,2,0,0
"60",117,"left","SHINEd_CasketOpen.jpg","incongruent","m",464.918454,"j","j","right","(148, 362)",218,1,465.744743920486,-98.2764629334961,"  990.65",99,1,0,0
"60",118,"right","SHINEd_Vest.jpg","congruent","m",627.264924,"j","j","right","(862, 362)",5,1,628.354601116579,64.3333942625968," 2246.34",16,4,1,1
"60",119,"left","SHINEd_airpump.jpg","incongruent","m",518.474446,"j","j","right","(148, 362)",114,1,519.827510312672,-44.1936965413103," 1056.08",50,3,0,0
"60",120,"left","SHINEd_Grape.jpg","congruent","n",474.128258,"f","f","left","(148, 362)",274,1,475.744709508765,-88.2764973452172," 2202.20",442,3,1,1
"60",121,"left","SHINEd_PictureFrame.jpg","incongruent","m",470.61645,"j","j","right","(148, 362)",222,1,472.496288704858,-91.5249181491243," 1100.84",265,2,0,0
"60",122,"right","SHINEd_Gloves_WhiteKnit.jpg","congruent","m",593.83041,"j","j","right","(862, 362)",197,1,595.973635900951,31.9524290469687," 1189.88",111,4,1,1
"60",123,"right","SHINEd_Bird_Eagle.jpg","incongruent","n",462.257156,"f","f","left","(862, 362)",257,1,464.663769097044,-99.3574377569384," 5285.38",130,2,1,NA
"60",124,"right","SHINEd_cheetah.jpg","incongruent","n",433.305487,"f","f","left","(862, 362)",245,1,435.975487293137,-128.045719560845," 1447.04",277,3,1,1
"60",125,"right","SHINEd_Bottle_Blue.jpg","congruent","m",445.274778,"j","j","right","(862, 362)",217,1,448.20816548923,-115.813041364753," 1414.35",433,1,1,NA
"60",126,"left","SHINEd_ClothCoaster.jpg","incongruent","m",408.158218,"j","j","right","(148, 362)",142,1,411.354992685323,-152.66621416866," 1319.20",313,2,1,NA
"60",127,"left","SHINEd_scallion.jpg","congruent","n",500.36393,"f","f","left","(148, 362)",314,1,503.824091881416,-60.1971149725667," 1568.27",68,1,0,0
"60",128,"left","SHINEd_Slide.jpg","incongruent","m",598.988887,"j","j","right","(148, 362)",82,1,602.712436077509,38.6912292235263," 1034.97",144,3,0,0
"60",129,"left","SHINEd_skunk.jpg","congruent","n",498.685628,"f","f","left","(148, 362)",290,1,502.672564273602,-61.3486425803808," 1448.29",377,1,0,0
"60",130,"left","SHINEd_HairClip.jpg","incongruent","m",574.38817,"j","j","right","(148, 362)",194,1,578.638493469694,14.6172866157121," 1423.43",37,1,0,0
"60",131,"left","SHINEd_Bowl_Fruits.jpg","congruent","n",561.634461,"f","f","left","(148, 362)",434,1,566.148171665787,2.1269648118051," 1206.41",253,4,1,1
"60",132,"left","SHINEd_rabbitt.jpg","congruent","n",903.085099,"f","f","left","(148, 362)",350,1,907.86219686188,343.840990007898," 1253.41",41,3,1,1
"60",133,"right","SHINEd_Lilypad.jpg","incongruent","n",499.40939,"f","f","left","(862, 362)",413,1,504.449875057973,-59.571331796009," 1772.55",379,4,1,1
"60",134,"right","SHINEd_Switch_LightWhite.jpg","congruent","m",486.062683,"j","j","right","(862, 362)",57,1,491.366555254066,-72.6546515999161," 2796.83",260,2,1,NA
"60",135,"right","SHINEd_Toad.jpg","incongruent","n",472.989651,"f","f","left","(862, 362)",441,1,478.556910450159,-85.4642964038231," 2685.69",354,2,0,0
"60",136,"right","SHINEd_red_panda.jpg","incongruent","n",524.617059,"f","f","left","(862, 362)",273,1,530.447705646252,-33.5735012077301," 1304.83",269,2,1,NA
"60",137,"right","SHINEd_Desk_School.jpg","congruent","m",544.701348,"j","j","right","(862, 362)",201,1,550.795381842345,-13.2258250116372," 1868.51",345,1,0,0
"60",138,"right","SHINEd_Bleachers.jpg","congruent","m",613.072957,"j","j","right","(862, 362)",133,1,619.430378038438,55.4091711844557," 1695.54",428,2,1,NA
"60",139,"left","SHINEd_Bucket_Rusty.jpg","incongruent","m",744.992474,"j","j","right","(148, 362)",34,1,751.613282234531,187.592075380549," 2013.76",271,3,0,0
"60",140,"right","SHINEd_Saw.jpg","congruent","m",628.735575,"j","j","right","(862, 362)",33,1,635.619770430624,71.5985635766416," 4542.45",349,3,1,1
"60",141,"left","SHINEd_Boardgame_Chess.jpg","incongruent","m",639.546444,"j","j","right","(148, 362)",86,1,646.694026626717,82.6728197727345," 1102.48",226,4,1,1
"60",142,"left","SHINEd_Seashell_BayScallop.jpg","congruent","n",555.124711,"f","f","left","(148, 362)",270,1,562.53568082281,-1.48552603117248,"  799.78",244,4,1,1
"60",143,"right","SHINEd_worm.jpg","incongruent","n",631.672012,"j","f","left","(862, 362)",389,0,639.346369018903,75.3251621649204," 1572.38",445,4,1,1
"60",144,"left","SHINEd_red_Cabbage.jpg","congruent","n",763.180344,"f","f","left","(148, 362)",230,1,771.118088214996,207.096881361013," 1956.04",437,3,0,0
"60",145,"left","SHINEd_Ball_Basketball.jpg","incongruent","m",614.585124,"j","j","right","(148, 362)",130,1,622.786255411089,58.7650485571062,"  948.33",450,3,1,1
"60",146,"left","SHINEd_Bicycle_Kids.jpg","incongruent","m",497.52982,"j","j","right","(148, 362)",26,1,505.994338607182,-58.0268682468008," 1157.50",369,2,0,0
"60",147,"right","SHINEd_BowlingPin.jpg","congruent","m",574.264661,"j","j","right","(862, 362)",25,1,582.992566803275,18.9713599492922,"  990.84",85,4,0,0
"60",148,"left","SHINEd_ChalkboardEraser.jpg","incongruent","m",583.714104,"j","j","right","(148, 362)",62,1,592.705396999368,28.6841901453851," 1918.38",330,2,1,NA
"60",149,"left","SHINEd_rose.jpg","congruent","n",491.531823,"f","f","left","(148, 362)",430,1,500.78650319546,-63.234703658522," 1451.27",40,2,0,0
"60",150,"right","SHINEd_ChainRusty.jpg","congruent","m",687.572477,"j","j","right","(862, 362)",21,1,697.090544391553,133.069337537571,"  965.23",221,4,1,1
"60",151,"right","SHINEd_BasketballHoop.jpg","congruent","m",636.722684,"j","j","right","(862, 362)",129,1,646.504138587646,82.4829317336639,"  914.74",421,3,1,1
"60",152,"left","SHINEd_Kite_Rainbow.jpg","incongruent","m",647.741012,"j","j","right","(148, 362)",78,1,657.785853783739,93.7646469297569,"  911.59",416,3,0,0
"60",153,"left","SHINEd_Deodorant.jpg","incongruent","m",691.755699,"j","j","right","(148, 362)",118,1,702.063927979832,138.04272112585," 1343.25",325,4,1,1
"60",154,"right","SHINEd_Knife_Camping.jpg","congruent","m",653.970904,"j","j","right","(862, 362)",37,1,664.542520175925,100.521313321943," 1079.70",331,3,1,1
"60",155,"right","SHINEd_Binder.jpg","congruent","m",474.474115,"j","j","right","(862, 362)",65,1,485.309118372018,-78.7120884819643," 1454.55",351,2,1,NA
"60",156,"left","SHINEd_wheat_stock.jpg","congruent","n",486.093323,"f","f","left","(148, 362)",358,1,497.191713568111,-66.8294932858713," 1471.73",263,1,0,0
"60",157,"right","SHINEd_donkey.jpg","incongruent","n",657.252098,"f","f","left","(862, 362)",409,1,668.613875764204,104.592668910222," 2556.16",57,2,1,NA
"60",158,"right","SHINEd_vanillabean copy.jpg","incongruent","n",501.646726,"f","f","left","(862, 362)",329,1,513.271890960297,-50.7493158936855," 1013.73",413,1,0,0
"60",159,"right","SHINEd_DoorKnob.jpg","congruent","m",777.067307,"j","j","right","(862, 362)",53,1,788.95585915639,224.934652302407," 1278.78",211,4,0,0
"60",160,"right","SHINEd_Megaphone.jpg","congruent","m",NA,"miss","j","right","(862, 362)",101,0,NA,NA,"11990.26",376,1,0,0
"60",161,"left","SHINEd_Cheesegrater_Handheld.jpg","incongruent","m",863.413439,"j","j","right","(148, 362)",162,1,875.828765548576,311.807558694593," 1357.29",34,3,1,1
"60",162,"left","SHINEd_durian.jpg","congruent","n",675.243583,"f","f","left","(148, 362)",374,1,687.922296744669,123.901089890686," 1080.47",220,2,0,0
"60",163,"right","SHINEd_Knee.jpg","incongruent","n",789.477496,"f","f","left","(862, 362)",309,1,802.419596940761,238.398390086779," 1425.22",185,3,1,1
"60",164,"left","SHINEd_Lips_Real.jpg","congruent","n",649.99159,"f","f","left","(148, 362)",390,1,663.197078136855,99.1758712828722,"  870.13",181,1,0,0
"60",165,"left","SHINEd_accordion.jpg","incongruent","m",656.372895,"j","j","right","(148, 362)",10,1,669.841770332947,105.820563478965," 1044.82",262,4,1,1
"60",166,"right","SHINEd_Corn.jpg","incongruent","n",556.452438,"f","f","left","(862, 362)",337,1,570.18470052904,6.16349367505811,"  950.32",344,3,1,1
"60",167,"right","SHINEd_Kettle.jpg","congruent","m",503.923072,"j","j","right","(862, 362)",157,1,517.918721725133,-46.102485128849," 1430.90",51,4,0,0
"60",168,"left","SHINEd_Calculator.jpg","incongruent","m",587.696202,"j","j","right","(148, 362)",94,1,601.955238921226,37.9340320672439," 4405.74",59,3,0,0
"60",169,"right","SHINEd_BicycleChain.jpg","congruent","m",679.145344,"j","j","right","(862, 362)",17,1,693.667768117319,129.646561263337," 1205.93",299,4,0,0
"60",170,"left","SHINEd_manatee.jpg","congruent","n",617.260618,"f","f","left","(148, 362)",342,1,632.046429313412,68.0252224594299," 1867.18",81,2,0,0
"60",171,"left","SHINEd_Flamingo_Real.jpg","congruent","n",517.800906,"f","f","left","(148, 362)",406,1,532.850104509505,-31.1711023444772," 1585.16",393,2,1,NA
"60",172,"left","SHINEd_LawnMower.jpg","incongruent","m",520.998992,"f","j","right","(148, 362)",46,0,536.311577705598,-27.7096291483842," 2230.10",422,1,1,NA
"60",173,"left","SHINEd_Cherry.jpg","congruent","n",540.624851,"f","f","left","(148, 362)",258,1,556.200823901691,-7.82038295229129," 6845.35",346,1,1,NA
"60",174,"right","SHINEd_Cloud.jpg","incongruent","n",944.994051,"f","f","left","(862, 362)",385,1,960.833411097784,396.812204243802," 1439.64",112,4,1,1
"60",175,"right","SHINEd_DogHouse.jpg","congruent","m",466.770233,"j","j","right","(862, 362)",165,1,482.872980293877,-81.1482265601054,"  956.15",189,3,0,0
"60",176,"left","SHINEd_Dog_CockerSpaniel.jpg","congruent","n",470.774174,"f","f","left","(148, 362)",306,1,487.14030848997,-76.8808983640125," 1373.39",29,4,0,0
"60",177,"left","SHINEd_Bathtub.jpg","incongruent","m",482.126879,"j","j","right","(148, 362)",58,1,498.756400686063,-65.2648061679196," 1996.08",21,3,1,1
"60",178,"right","SHINEd_MusicSheet.jpg","congruent","m",614.204184,"j","j","right","(862, 362)",13,1,631.097092882156,67.0758860281734," 1420.21",409,2,1,NA
"60",179,"right","SHINEd_Snail.jpg","incongruent","n",625.342363,"f","f","left","(862, 362)",241,1,642.498659078249,78.4774522242663," 1106.91",201,3,0,0
"60",180,"left","SHINEd_Dog_Bulldog.jpg","congruent","n",524.811419,"f","f","left","(148, 362)",326,1,542.231102274342,-21.7901045796407," 7095.82",73,2,0,0
"60",181,"right","SHINEd_FileDivider.jpg","congruent","m",569.661154,"j","j","right","(862, 362)",69,1,587.344224470435,23.3230176164522," 2047.94",385,1,0,0
"60",182,"left","SHINEd_Glove_Rubber.jpg","incongruent","m",749.527481,"j","j","right","(148, 362)",138,1,767.473938666527,203.452731812545," 1021.95",408,2,1,NA
"60",183,"left","SHINEd_Gecko.jpg","congruent","n",585.315633,"f","f","left","(148, 362)",370,1,603.525477862621,39.5042710086381," 7545.81",358,1,0,0
"60",184,"left","SHINEd_RollerBlade.jpg","incongruent","m",460.6039,"j","j","right","(148, 362)",178,1,479.077132058713,-84.944074795269," 1068.60",373,2,0,0
"60",185,"left","SHINEd_Starfish.jpg","congruent","n",640.545721,"f","f","left","(148, 362)",378,1,659.282340254806,95.261133400824," 1019.73",419,4,1,1
"60",186,"left","SHINEd_Car_Vintage.jpg","incongruent","m",554.215931,"j","j","right","(148, 362)",186,1,573.215937450899,9.19473059691687," 1180.04",93,3,0,0
"60",187,"right","SHINEd_Gum_Pack.jpg","congruent","m",582.144808,"j","j","right","(862, 362)",77,1,601.408201646992,37.3869947930099," 1597.66",314,3,0,0
"60",188,"left","SHINEd_Mirror_Makeup.jpg","incongruent","m",577.911516,"j","j","right","(148, 362)",122,1,597.438296843085,33.4170899891028," 1182.91",254,3,1,1
"60",189,"left","SHINEd_Bugle.jpg","incongruent","m",469.193929,"j","j","right","(148, 362)",14,1,488.984097039178,-75.0371098148042," 2262.68",207,1,1,NA
"60",190,"right","SHINEd_Bowl_Wooden.jpg","congruent","m",487.725782,"j","j","right","(862, 362)",141,1,507.779337235271,-56.2418696187113,"  974.34",79,4,1,1
"60",191,"right","SHINEd_Clock_Radio.jpg","congruent","m",483.781475,"j","j","right","(862, 362)",93,1,504.098417431364,-59.9227894226184," 6124.24",127,2,0,0
"60",192,"left","SHINEd_Cane_Metal.jpg","incongruent","m",575.600619,"j","j","right","(148, 362)",190,1,596.180948627457,32.1597417734746," 1192.15",280,2,0,0
"60",193,"right","SHINEd_cottonplant.jpg","incongruent","n",484.320288,"f","f","left","(862, 362)",297,1,505.16400482355,-58.8572020304325," 1933.86",151,2,0,0
"60",194,"right","SHINEd_BusStop.jpg","congruent","m",487.798815,"j","j","right","(862, 362)",145,1,508.905919019643,-55.1152878343396," 1015.12",90,1,0,0
"60",195,"left","SHINEd_PencilSharpener.jpg","incongruent","m",434.916524,"j","j","right","(148, 362)",74,1,456.287015215736,-107.734191638247," 1294.64",322,3,0,0
"60",196,"right","SHINEd_Crown.jpg","congruent","m",365.67147,"j","j","right","(862, 362)",193,1,387.305348411829,-176.715858442154,"  797.26",306,4,1,1
"60",197,"right","SHINEd_Chair_High.jpg","congruent","m",354.461603,"j","j","right","(862, 362)",209,1,376.358868607922,-187.662338246061,"  952.00",362,3,0,0
"60",198,"left","SHINEd_volcano copy.jpg","congruent","n",557.765363,"f","f","left","(148, 362)",234,1,579.926015804015,15.9048089500322," 1088.98",38,4,1,1
"60",199,"right","SHINEd_Collards.jpg","incongruent","n",418.113398,"f","f","left","(862, 362)",445,1,440.537438000107,-123.483768853875," 3903.31",182,3,1,1
"60",200,"left","SHINEd_honeydew.jpg","congruent","n",534.368287,"f","f","left","(148, 362)",330,1,557.0557141962,-6.96549265778188," 3005.58",311,4,1,1
"60",201,"right","SHINEd_Cabinet_Display.jpg","congruent","m",424.921636,"j","j","right","(862, 362)",205,1,447.872450392293,-116.148756461689," 1160.36",166,3,1,1
"60",202,"right","SHINEd_Broccoli.jpg","incongruent","n",404.399005,"f","f","left","(862, 362)",253,1,427.613206588386,-136.408000265596," 2043.03",149,1,0,0
"60",203,"right","SHINEd_Mitt_Oven.jpg","congruent","m",456.994671,"j","j","right","(862, 362)",137,1,480.472259784479,-83.5489470695031," 1539.64",49,3,1,1
"60",204,"left","SHINEd_peacockfeather.jpg","congruent","n",346.790351,"f","f","left","(148, 362)",382,1,370.531326980572,-193.48987987341," 1400.04",238,2,0,0
"60",205,"left","SHINEd_Jacket_Suit.jpg","incongruent","m",559.617147,"j","j","right","(148, 362)",2,1,583.621510176665,19.6003033226829," 1455.05",26,4,1,1
"60",206,"right","SHINEd_Pineapple.jpg","incongruent","n",482.244103,"f","f","left","(862, 362)",353,1,506.511853372758,-57.5093534812242," 4719.15",292,2,1,NA
"60",207,"left","SHINEd_ladybug.jpg","congruent","n",437.37267,"f","f","left","(148, 362)",238,1,461.903807568851,-102.117399285131," 1788.59",154,4,1,1
"60",208,"left","SHINEd_Beater_Electric.jpg","incongruent","m",336.736928,"f","j","right","(148, 362)",42,0,361.531452764944,-202.489754089038," 1590.53",455,2,0,0
"60",209,"left","SHINEd_LightHouse.jpg","incongruent","m",630.550525,"j","j","right","(148, 362)",146,1,655.608436961037,91.5872301070546," 1206.41",395,2,0,0
"60",210,"left","SHINEd_Currants.jpg","congruent","n",512.3974,"f","f","left","(148, 362)",254,1,537.71869915713,-26.3025076968525," 1600.75",71,3,1,1
"60",211,"left","SHINEd_fox.jpg","congruent","n",397.825724,"f","f","left","(148, 362)",334,1,423.410410353223,-140.61079650076," 1072.89",61,3,1,1
"60",212,"right","SHINEd_Branch.jpg","incongruent","n",503.440837,"f","f","left","(862, 362)",333,1,529.288910549316,-34.7322963046666," 1028.62",338,1,0,0
"60",213,"right","SHINEd_Fish_Rockbass.jpg","incongruent","n",NA,"miss","f","left","(862, 362)",341,0,NA,NA," 2020.81",13,2,0,0
"60",214,"left","SHINEd_Nuts_Walnut.jpg","congruent","n",485.669874,"f","f","left","(148, 362)",446,1,512.044721941502,-51.9764849124807," 1261.40",143,4,1,1
"60",215,"right","SHINEd_Leg.jpg","incongruent","n",610.81371,"f","f","left","(862, 362)",405,1,637.451945137595,73.4307382836122," 1157.08",133,3,0,0
"60",216,"right","SHINEd_rhino horn.jpg","incongruent","n",750.064202,"f","f","left","(862, 362)",249,1,776.965824333688,212.944617479705," 1125.28",324,4,1,1
"60",217,"left","SHINEd_BearPolar.jpg","congruent","n",513.1954,"f","f","left","(148, 362)",386,1,540.36040952978,-23.6607973242019," 1317.60",27,4,1,1
"60",218,"left","SHINEd_Hourglass.jpg","incongruent","m",469.283058,"j","j","right","(148, 362)",110,1,496.711454725873,-67.309752128109," 1213.51",72,4,1,1
"60",219,"right","SHINEd_Mango.jpg","incongruent","n",408.257549,"f","f","left","(862, 362)",277,1,435.949332921966,-128.071873932016," 1788.08",3,4,1,1
"60",220,"left","SHINEd_Cranberry.jpg","congruent","n",388.372993,"f","f","left","(148, 362)",398,1,416.328164118059,-147.693042735923," 4396.72",443,1,1,NA
"60",221,"left","SHINEd_spinach.jpg","congruent","n",526.788572,"f","f","left","(148, 362)",266,1,555.007130314152,-9.01407653983007," 1104.83",240,2,1,NA
"60",222,"right","SHINEd_ShoppingCart.jpg","congruent","m",409.682291,"j","j","right","(862, 362)",109,1,438.164236510245,-125.856970343737," 1364.61",390,2,1,NA
"60",223,"right","SHINEd_Jetski.jpg","congruent","m",398.932329,"f","j","right","(862, 362)",181,0,427.677661706338,-136.343545147644," 2128.91",179,3,0,0
"60",224,"right","SHINEd_pumpkinseeds-.jpg","incongruent","n",472.684211,"f","f","left","(862, 362)",237,1,501.692930902431,-62.3282759515513," 1206.88",92,4,1,1
"60",225,"left","SHINEd_Scooter.jpg","incongruent","m",507.372307,"j","j","right","(148, 362)",174,1,536.644414098524,-27.3767927554584," 1134.95",108,1,0,0
"60",226,"right","SHINEd_Cannon.jpg","congruent","m",527.549902,"j","j","right","(862, 362)",61,1,557.085396294617,-6.93581055936543," 1048.22",268,2,0,0
"60",227,"left","SHINEd_Ball_Bowling.jpg","incongruent","m",625.713763,"j","j","right","(148, 362)",134,1,655.51264449071,91.4914376367275," 2427.48",17,4,1,1
"60",228,"left","SHINEd_USBKey.jpg","incongruent","m",510.798387,"j","j","right","(148, 362)",90,1,540.860655686803,-23.1605511671795," 1068.81",355,4,1,1
