"participant","trial_index","screenposition","stimulus","trialtype","classifyenc","rt","response","responsecorrect","responsecorrect_side","screenlocation","stimnum","acc","rtResidual","rtResidualC","rt_rec","trialno_rec","ratingConfidence","acc_rec","memoryHits.hc"
"63",1,"right","SHINEd_Hammer.jpg","incongruent","m",NA,"miss","f","left","(862, 362)",36,0,NA,NA,"  958.73",390,3,1,1
"63",2,"right","SHINEd_Lion.jpg","congruent","n",692.09411,"j","j","right","(862, 362)",316,1,674.090956126611,30.8884745857018," 2493.33",314,3,0,0
"63",3,"left","SHINEd_LightBulb_White.jpg","congruent","m",750.626245,"f","f","left","(148, 362)",47,1,732.782931872885,89.580450331976," 1221.75",341,3,1,1
"63",4,"left","SHINEd_Cauliflower.jpg","incongruent","n",898.77108,"j","j","right","(148, 362)",291,1,881.087607619168,237.885126078259,"  701.12",312,4,1,1
"63",5,"left","SHINEd_Stroller.jpg","congruent","m",661.148917,"f","f","left","(148, 362)",55,1,643.625285365451,0.422803824541949," 2180.60",20,4,1,1
"63",6,"right","SHINEd_LifeJacket_BlueYellow.jpg","incongruent","m",689.140558,"f","f","left","(862, 362)",16,1,671.776767111734,28.5742855708251," 2944.53",9,4,1,1
"63",7,"right","SHINEd_Cucumber.jpg","congruent","n",733.926022,"j","j","right","(862, 362)",364,1,716.722071858017,73.519590317108,"  759.51",43,4,1,1
"63",8,"left","SHINEd_mapleleaf.jpg","incongruent","n",632.442493,"j","j","right","(148, 362)",335,1,615.3983836043,-27.8040979366089,"  767.51",179,4,1,1
"63",9,"right","SHINEd_Squash_Butternut.jpg","congruent","n",510.394485,"j","j","right","(862, 362)",444,1,493.510216350583,-149.692265190326," 1078.12",296,4,1,1
"63",10,"right","SHINEd_SpinningWheel.jpg","incongruent","m",682.787207,"f","f","left","(862, 362)",124,1,666.062779096866,22.8602975559572," 1408.85",229,4,1,1
"63",11,"left","SHINEd_MannequinBust.jpg","congruent","m",854.505602,"f","f","left","(148, 362)",103,1,837.941014843149,194.73853330224," 2846.51",2,4,1,1
"63",12,"left","SHINEd_aloe.jpg","incongruent","n",800.93733,"j","j","right","(148, 362)",299,1,784.532583589432,141.330102048523,"  720.78",83,4,1,1
"63",13,"right","SHINEd_Hand.jpg","congruent","n",NA,"miss","j","right","(862, 362)",284,0,NA,NA,"  712.12",73,4,1,1
"63",14,"right","SHINEd_EspressoMachine.jpg","incongruent","m",609.116337,"f","f","left","(862, 362)",156,1,593.031272081999,-50.1712094589106," 1197.61",432,2,1,NA
"63",15,"right","SHINEd_blueberries.jpg","congruent","n",781.162737,"j","j","right","(862, 362)",232,1,765.237512828281,122.035031287372," 3051.43",376,1,1,NA
"63",16,"right","SHINEd_Lock_Combination.jpg","incongruent","m",561.075405,"f","f","left","(862, 362)",64,1,545.310021574565,-97.8924599663445,"  796.07",422,3,1,1
"63",17,"right","SHINEd_Ginger.jpg","congruent","n",683.686113,"j","j","right","(862, 362)",236,1,668.080570320848,24.8780887799385,"  639.83",152,4,1,1
"63",18,"left","SHINEd_Fish_Swordfish.jpg","incongruent","n",648.556315,"j","j","right","(148, 362)",331,1,633.110613067131,-10.0918684737784," 1237.73",234,4,1,1
"63",19,"left","SHINEd_Shark_GreatWhite.jpg","incongruent","n",514.026893,"j","j","right","(148, 362)",287,1,498.741031813414,-144.461449727495,"  996.67",269,4,1,1
"63",20,"left","SHINEd_Shoes_Pumps.jpg","congruent","m",551.104595,"f","f","left","(148, 362)",151,1,535.978574559697,-107.223906981212," 2557.41",4,4,1,1
"63",21,"right","SHINEd_Card_TwoSpade.jpg","incongruent","m",682.257497,"f","f","left","(862, 362)",88,1,667.29131730598,24.0888357650706," 2103.85",18,4,1,1
"63",22,"right","SHINEd_Button.jpg","incongruent","m",628.41536,"f","f","left","(862, 362)",4,1,613.609021052263,-29.5934604886463,"  844.78",412,4,1,1
"63",23,"left","SHINEd_Ship_Model.jpg","congruent","m",665.196097,"f","f","left","(148, 362)",83,1,650.549598798546,7.34711725763678,"  837.32",174,1,0,0
"63",24,"left","SHINEd_white sesame.jpg","incongruent","n",540.658796,"j","j","right","(148, 362)",371,1,526.172138544829,-117.03034299608,"  774.13",220,4,1,1
"63",25,"left","SHINEd_Dresser.jpg","congruent","m",519.796681,"f","f","left","(148, 362)",203,1,505.469864291112,-137.732617249797," 1189.92",405,1,0,0
"63",26,"left","SHINEd_Owl.jpg","incongruent","n",532.425445,"j","j","right","(148, 362)",407,1,518.258469037395,-124.944012503514,"  715.60",356,4,1,1
"63",27,"left","SHINEd_Cup_Bathroom.jpg","congruent","m",623.215228,"f","f","left","(148, 362)",51,1,609.208092783678,-33.994388757231,"  920.26",279,3,1,1
"63",28,"right","SHINEd_tapir copy.jpg","congruent","n",563.174773,"j","j","right","(862, 362)",408,1,549.327478529961,-93.875003010948,"  815.45",311,4,1,1
"63",29,"left","SHINEd_Seal_animal.jpg","incongruent","n",485.900714,"j","j","right","(148, 362)",379,1,472.213260276244,-170.989221264665,"  638.32",125,2,1,NA
"63",30,"left","SHINEd_Oars.jpg","congruent","m",489.483186,"f","f","left","(148, 362)",19,1,475.955573022527,-167.246908518382," 1958.65",271,4,1,1
"63",31,"left","SHINEd_Caribou.jpg","incongruent","n",564.216518,"j","j","right","(148, 362)",435,1,550.84874576881,-92.3537357720989," 1172.50",351,3,1,1
"63",32,"right","SHINEd_Shampoo.jpg","incongruent","m",657.284586,"f","f","left","(862, 362)",120,1,644.076654515093,0.87417297418417," 2128.07",6,4,1,1
"63",33,"left","SHINEd_WateringCan_PlasticDarkGreen.jpg","congruent","m",739.580557,"f","f","left","(148, 362)",215,1,726.532466261376,83.3299847204672," 2429.86",368,3,0,0
"63",34,"left","SHINEd_bat.jpg","incongruent","n",679.818342,"j","j","right","(148, 362)",403,1,666.930092007659,23.7276104667503," 1861.85",256,4,1,1
"63",35,"right","SHINEd_Pepper_Chili.jpg","congruent","n",548.117342,"j","j","right","(862, 362)",240,1,535.388932753942,-107.813548786967," 1128.19",118,4,1,1
"63",36,"right","SHINEd_Boots_KneeHigh.jpg","incongruent","m",630.381821,"f","f","left","(862, 362)",152,1,617.813252500225,-25.3892290406837," 1079.18",46,4,1,1
"63",37,"left","SHINEd_Bat_Baseball.jpg","congruent","m",618.500968,"f","f","left","(148, 362)",127,1,606.092240246508,-37.1102412944007," 1432.83",188,2,1,NA
"63",38,"right","SHINEd_Earrings_Dangling.jpg","incongruent","m",974.452599,"f","f","left","(862, 362)",196,1,962.203711992791,319.001230451882,"  719.33",141,4,1,1
"63",39,"right","SHINEd_beetle.jpg","congruent","n",560.507264,"j","j","right","(862, 362)",356,1,548.418217739075,-94.7842638018346," 1471.09",437,2,1,NA
"63",40,"right","SHINEd_Bolt.jpg","incongruent","m",588.577389,"f","f","left","(862, 362)",32,1,576.648183485358,-66.5542980555514,"  920.08",90,4,1,1
"63",41,"left","SHINEd_Microwave.jpg","congruent","m",529.660205,"f","f","left","(148, 362)",155,1,517.890840231641,-125.311641309268," 1511.99",112,2,0,0
"63",42,"left","SHINEd_Iguana.jpg","incongruent","n",748.505159,"j","j","right","(148, 362)",387,1,736.895634977924,93.6931534370147,"  694.77",387,4,1,1
"63",43,"left","SHINEd_LetterMail.jpg","congruent","m",615.137825,"f","f","left","(148, 362)",75,1,603.688141724207,-39.5143398167023,"  926.55",290,4,1,1
"63",44,"right","SHINEd_Cologne.jpg","incongruent","m",699.564676,"f","f","left","(862, 362)",116,1,688.27483347049,45.0723519295807," 1076.52",183,3,1,1
"63",45,"right","SHINEd_Exercise_Bike.jpg","incongruent","m",750.347924,"f","f","left","(862, 362)",24,1,739.217922216773,96.0154406758638,"  879.98",35,4,1,1
"63",46,"right","SHINEd_sloth.jpg","congruent","n",633.735826,"j","j","right","(862, 362)",304,1,622.765664963056,-20.4368165778532," 3060.89",367,2,1,NA
"63",47,"left","SHINEd_dates_fresh.jpg","incongruent","n",678.624675,"j","j","right","(148, 362)",319,1,667.814354709339,24.6118731684299,"  753.22",88,4,1,1
"63",48,"right","SHINEd_Golf_Club.jpg","incongruent","m",688.749574,"f","f","left","(862, 362)",132,1,678.099094455622,34.896612914713," 1162.55",114,3,0,0
"63",49,"right","SHINEd_Pear_Yellow.jpg","congruent","n",620.287641,"j","j","right","(862, 362)",416,1,609.797002201905,-33.405479339004," 1220.22",295,3,1,1
"63",50,"right","SHINEd_BookShelf.jpg","incongruent","m",553.759568,"f","f","left","(862, 362)",204,1,543.428769948188,-99.7737115927211,"  183.96",451,4,0,0
"63",51,"left","SHINEd_birdie.jpg","congruent","m",660.883973,"f","f","left","(148, 362)",131,1,650.713015694471,7.510534153562,"   55.81",243,3,1,1
"63",52,"right","SHINEd_maggotts.jpg","congruent","n",729.034339,"j","j","right","(862, 362)",392,1,719.023222440754,75.8207408998451," 1076.57",362,3,1,1
"63",53,"left","SHINEd_alligator.jpg","incongruent","n",571.475888,"j","j","right","(148, 362)",355,1,561.624612187037,-81.5778693538718,"  800.66",334,4,1,1
"63",54,"left","SHINEd_Cage_Bird.jpg","congruent","m",545.041424,"f","f","left","(148, 362)",123,1,535.34998893332,-107.852492607589," 1126.01",29,4,1,1
"63",55,"right","SHINEd_PencilCase.jpg","incongruent","m",899.717776,"f","f","left","(862, 362)",68,1,890.186181679603,246.983700138694," 1118.55",215,3,0,0
"63",56,"left","SHINEd_turkey.jpg","incongruent","n",528.770329,"j","j","right","(148, 362)",391,1,519.398575425886,-123.803906115023," 1352.54",366,1,0,0
"63",57,"right","SHINEd_Pepper_Green.jpg","congruent","n",566.039117,"j","j","right","(862, 362)",372,1,556.827204172169,-86.3752773687397,"  893.91",117,4,1,1
"63",58,"right","SHINEd_ornament.jpg","incongruent","m",NA,"miss","f","left","(862, 362)",224,0,NA,NA," 1533.12",445,3,1,1
"63",59,"right","SHINEd_Dill.jpg","congruent","n",794.989991,"j","j","right","(862, 362)",256,1,786.097759664735,142.895278123826,"  965.79",413,2,1,NA
"63",60,"right","SHINEd_Tie.jpg","incongruent","m",654.099309,"f","f","left","(862, 362)",192,1,645.366918411018,2.16443687010938,"  893.87",348,4,1,1
"63",61,"right","SHINEd_Pitcher.jpg","incongruent","m",634.306131,"f","f","left","(862, 362)",56,1,625.733581157302,-17.4689003836075," 1857.47",337,3,1,1
"63",62,"right","SHINEd_bee.jpg","congruent","n",622.973712,"j","j","right","(862, 362)",380,1,614.561002903584,-28.6414786373245," 1416.77",440,3,0,0
"63",63,"left","SHINEd_pistachios-.jpg","incongruent","n",683.428952,"j","j","right","(148, 362)",411,1,675.176083649868,31.9736021089586," 1904.10",299,1,1,NA
"63",64,"right","SHINEd_HorseshoeCrab.jpg","congruent","n",918.257988,"j","j","right","(862, 362)",260,1,910.164960396151,266.962478855242,"  678.87",110,4,1,1
"63",65,"right","SHINEd_GasStation.jpg","incongruent","m",642.535022,"f","f","left","(862, 362)",168,1,634.601835142434,-8.60064639847531," 1224.88",372,4,1,1
"63",66,"right","SHINEd_fig.jpg","congruent","n",622.112365,"j","j","right","(862, 362)",412,1,614.339018888717,-28.8634626521923," 4025.97",239,2,1,NA
"63",67,"right","SHINEd_Dart.jpg","incongruent","m",624.140982,"f","f","left","(862, 362)",20,1,616.527476635,-26.6750049059092," 2062.25",104,3,1,1
"63",68,"right","SHINEd_Box_Package.jpg","incongruent","m",640.596676,"f","f","left","(862, 362)",220,1,633.143011381283,-10.0594701596262,"  698.44",86,4,1,1
"63",69,"left","SHINEd_Fence_Wooden.jpg","congruent","m",555.977784,"f","f","left","(148, 362)",163,1,548.683960127566,-94.5185214133431,"  940.92",393,3,1,1
"63",70,"left","SHINEd_beluga.jpg","incongruent","n",663.105811,"j","j","right","(148, 362)",431,1,655.971827873849,12.7693463329399,"  744.96",198,3,0,0
"63",71,"left","SHINEd_SpongeScrubbing.jpg","congruent","m",521.763539,"f","f","left","(148, 362)",139,1,514.789396620132,-128.413084920777," 1038.22",333,4,1,1
"63",72,"right","SHINEd_Outhouse.jpg","incongruent","m",630.912396,"f","f","left","(862, 362)",164,1,624.098094366415,-19.1043871744941,"  978.71",402,4,1,1
"63",73,"right","SHINEd_ant.jpg","congruent","n",779.087831,"j","j","right","(862, 362)",328,1,772.433370112698,129.230888571789,"  733.15",153,4,1,1
"63",74,"right","SHINEd_Light_Traffic.jpg","incongruent","m",670.349512,"f","f","left","(862, 362)",180,1,663.854891858981,20.6524103180721,"  770.86",288,4,1,1
"63",75,"right","SHINEd_vulture.jpg","congruent","n",618.006246,"f","j","right","(862, 362)",436,0,611.671466605264,-31.5310149356449," 1918.68",82,2,0,0
"63",76,"left","SHINEd_FireHydrant.jpg","congruent","m",838.774682,"f","f","left","(148, 362)",167,1,832.599743351547,189.397261810638," 1199.92",436,3,1,1
"63",77,"right","SHINEd_CompassCardinal.jpg","incongruent","m",881.521218,"f","f","left","(862, 362)",40,1,875.50612009783,232.303638556921,"  832.88",128,3,0,0
"63",78,"left","SHINEd_Light_Siren.jpg","congruent","m",668.518697,"f","f","left","(148, 362)",95,1,662.663439844113,19.4609583032042,"  799.72",145,4,1,1
"63",79,"left","SHINEd_almond.jpg","incongruent","n",592.049853,"j","j","right","(148, 362)",311,1,586.354436590396,-56.8480449505127," 1087.42",250,3,1,1
"63",80,"left","SHINEd_KeyHook_Empty.jpg","congruent","m",589.120348,"f","f","left","(148, 362)",223,1,583.584772336679,-59.6177092042296," 1295.64",85,4,1,1
"63",81,"right","SHINEd_Ball_Football.jpg","incongruent","m",471.630066,"f","f","left","(862, 362)",128,1,466.254331082962,-176.948150457947," 1168.19",283,4,1,1
"63",82,"left","SHINEd_Belt.jpg","congruent","m",597.318886,"f","f","left","(148, 362)",195,1,592.102991829246,-51.0994897116636," 1142.46",213,2,0,0
"63",83,"left","SHINEd_moth.jpg","incongruent","n",575.534603,"j","j","right","(148, 362)",427,1,570.478549575528,-72.7239319653806,"  966.53",258,4,1,1
"63",84,"right","SHINEd_Celery.jpg","congruent","n",675.691982,"j","j","right","(862, 362)",272,1,670.795769321812,27.5932877809026,"  767.94",280,4,1,1
"63",85,"right","SHINEd_alarm.jpg","incongruent","m",623.0948,"f","f","left","(862, 362)",96,1,618.358428068095,-24.8440534728145," 1359.91",391,4,1,1
"63",86,"right","SHINEd_TigerWhite.jpg","congruent","n",635.23612,"j","j","right","(862, 362)",440,1,630.659588814378,-12.5428927265314," 2654.84",93,2,1,NA
"63",87,"right","SHINEd_Lobster.jpg","congruent","n",543.917507,"j","j","right","(862, 362)",288,1,539.500816560661,-103.701664980248,"  624.86",108,4,1,1
"63",88,"right","SHINEd_ScannerShoplifting.jpg","incongruent","m",819.032253,"f","f","left","(862, 362)",100,1,814.775403306944,171.572921766035," 1752.62",26,4,1,1
"63",89,"left","SHINEd_Notepad.jpg","congruent","m",863.945957,"f","f","left","(148, 362)",71,1,859.848948053227,216.646466512318,"  982.54",444,3,0,0
"63",90,"left","SHINEd_tentacle.jpg","incongruent","n",586.054732,"j","j","right","(148, 362)",247,1,582.11756379951,-61.0849177413993,"  878.92",285,4,1,1
"63",91,"left","SHINEd_lime.jpg","incongruent","n",629.787989,"j","j","right","(148, 362)",439,1,626.010661545793,-17.1918199951161," 1022.00",353,1,0,0
"63",92,"left","SHINEd_paddle ball.jpg","congruent","m",696.629411,"f","f","left","(148, 362)",27,1,693.011924292076,49.8094427511669,"  971.28",409,4,1,1
"63",93,"left","SHINEd_Crab.jpg","incongruent","n",661.6913,"j","j","right","(148, 362)",259,1,658.233654038359,15.0311724974499," 3224.05",175,3,1,1
"63",94,"left","SHINEd_MousepadAndMouse.jpg","congruent","m",768.862896,"f","f","left","(148, 362)",99,1,765.565090784642,122.362609243733,"  864.97",99,4,1,1
"63",95,"right","SHINEd_Guitar_Acoustic.jpg","incongruent","m",579.437944,"j","f","left","(862, 362)",12,0,576.299979530925,-66.902502009984," 1383.14",429,2,1,NA
"63",96,"left","SHINEd_tree.jpg","incongruent","n",520.16521,"j","j","right","(148, 362)",375,1,517.187086277208,-126.015395263701,"  975.64",449,3,0,0
"63",97,"left","SHINEd_Crayon_Green.jpg","congruent","m",820.400998,"f","f","left","(148, 362)",63,1,817.582715023491,174.380233482582,"  900.18",203,3,1,1
"63",98,"left","SHINEd_Puffin.jpg","incongruent","n",752.376546,"j","j","right","(148, 362)",231,1,749.718103769774,106.515622228865," 1672.89",33,3,1,1
"63",99,"right","SHINEd_eggs.jpg","congruent","n",564.137683,"j","j","right","(862, 362)",296,1,561.639081516057,-81.5634000248518,"  989.85",315,3,0,0
"63",100,"left","SHINEd_tamarinds.jpg","incongruent","n",639.403101,"j","j","right","(148, 362)",451,1,637.06434026234,-6.13814127856878," 2119.75",202,3,1,1
"63",101,"left","SHINEd_OnionRed.jpg","incongruent","n",476.72494,"j","j","right","(148, 362)",383,1,474.546020008623,-168.656461532286," 1135.33",13,4,1,1
"63",102,"left","SHINEd_Organ.jpg","congruent","m",455.651305,"f","f","left","(148, 362)",7,1,453.632225754906,-189.570255786003,"  951.47",55,4,1,1
"63",103,"left","SHINEd_Panda.jpg","incongruent","n",596.310382,"j","j","right","(148, 362)",251,1,594.451143501189,-48.7513380397196,"  861.17",344,2,0,0
"63",104,"left","SHINEd_Razor.jpg","congruent","m",775.327776,"f","f","left","(148, 362)",119,1,773.628378247472,130.425896706563," 1766.83",5,3,0,0
"63",105,"right","SHINEd_Banana.jpg","congruent","n",624.857259,"j","j","right","(862, 362)",376,1,623.317701993755,-19.8847795471535,"  710.69",148,4,1,1
"63",106,"left","SHINEd_Coral.jpg","incongruent","n",707.479129,"j","j","right","(148, 362)",455,1,706.099412740038,62.8969311991294,"  869.95",403,4,1,1
"63",107,"left","SHINEd_Playard.jpg","congruent","m",783.718284,"f","f","left","(148, 362)",59,1,782.498408486322,139.295926945413," 4293.27",379,3,0,0
"63",108,"left","SHINEd_puffer-fish.jpg","incongruent","n",580.265043,"j","j","right","(148, 362)",339,1,579.205008232605,-63.9974733083044,"  841.36",226,4,1,1
"63",109,"right","SHINEd_mint.jpg","congruent","n",654.122231,"j","j","right","(862, 362)",360,1,653.222036978888,10.0195554379787," 1201.67",275,3,1,1
"63",110,"left","SHINEd_Chimpanzee.jpg","incongruent","n",NA,"miss","j","right","(148, 362)",255,0,NA,NA," 3799.40",194,3,0,0
"63",111,"left","SHINEd_Snowboard.jpg","congruent","m",520.207101,"f","f","left","(148, 362)",23,1,519.626588471454,-123.575893069455," 2717.39",209,1,0,0
"63",112,"left","SHINEd_Nuts_Peanuts.jpg","incongruent","n",651.726126,"j","j","right","(148, 362)",235,1,651.305454217737,8.10297267682779," 2127.51",64,2,1,NA
"63",113,"left","SHINEd_Harp.jpg","congruent","m",638.811444,"f","f","left","(148, 362)",11,1,638.55061296402,-4.65186857688914,"  767.68",176,3,1,1
"63",114,"left","SHINEd_Barbecue_Gas.jpg","congruent","m",482.151027,"f","f","left","(148, 362)",159,1,482.050036710303,-161.152444830606," 1589.55",193,3,1,1
"63",115,"left","SHINEd_alfalfa.jpg","incongruent","n",612.258311,"j","j","right","(148, 362)",283,1,612.317161456586,-30.885320084323,"  872.67",77,4,1,1
"63",116,"left","SHINEd_FloppyDisk.jpg","congruent","m",728.086681,"f","f","left","(148, 362)",147,1,728.305372202869,85.1028906619599,"  800.37",421,3,1,1
"63",117,"right","SHINEd_Fan_Ceiling.jpg","incongruent","m",860.588968,"f","f","left","(862, 362)",48,1,860.967499949152,217.765018408243,"  816.33",396,3,0,0
"63",118,"right","SHINEd_blackberry.jpg","congruent","n",543.079552,"j","j","right","(862, 362)",280,1,543.617924695435,-99.5845568454739," 1176.80",59,4,1,1
"63",119,"right","SHINEd_HedgeShears.jpg","incongruent","m",634.562263,"f","f","left","(862, 362)",28,1,635.260476441718,-7.94200509919089," 1329.15",95,3,1,1
"63",120,"left","SHINEd_DryRack_Dishes.jpg","congruent","m",677.804714,"f","f","left","(148, 362)",135,1,678.662768188001,35.4602866470921," 2575.78",105,2,0,0
"63",121,"left","SHINEd_penguin.jpg","incongruent","n",786.400187,"f","j","right","(148, 362)",307,0,787.418081934284,144.215600393375," 1455.10",147,2,1,NA
"63",122,"left","SHINEd_Stapler_Regular.jpg","congruent","m",547.668947,"f","f","left","(148, 362)",43,1,548.846682680567,-94.3557988603418," 2214.54",15,3,1,1
"63",123,"right","SHINEd_Boombox.jpg","incongruent","m",567.34079,"f","f","left","(862, 362)",92,1,568.67836642685,-74.5241151140588," 1159.36",293,3,1,1
"63",124,"right","SHINEd_DrainPlug.jpg","incongruent","m",699.471383,"f","f","left","(862, 362)",140,1,700.968800173133,57.7663186322242,"  718.72",161,4,1,1
"63",125,"right","SHINEd_dove.jpg","congruent","n",589.862418,"j","j","right","(862, 362)",308,1,591.519675919416,-51.6828056214926," 1255.79",130,3,1,1
"63",126,"left","SHINEd_Seahorse.jpg","incongruent","n",633.023395,"j","j","right","(148, 362)",347,1,634.840493665699,-8.36198787520955," 1295.01",306,2,1,NA
"63",127,"right","SHINEd_Sheep.jpg","congruent","n",501.499973,"j","j","right","(862, 362)",300,1,503.476912411983,-139.725569128927," 1101.80",113,2,1,NA
"63",128,"left","SHINEd_Potato.jpg","incongruent","n",608.774851,"j","j","right","(148, 362)",423,1,610.911631158266,-32.2908503826435,"  832.59",120,4,1,1
"63",129,"left","SHINEd_Binoculars.jpg","congruent","m",557.249888,"f","f","left","(148, 362)",199,1,559.546508904549,-83.6559726363604," 2333.90",417,2,0,0
"63",130,"left","SHINEd_Seashell_RoseMurex.jpg","incongruent","n",632.756647,"j","j","right","(148, 362)",327,1,635.213108650832,-7.98937289007738,"  666.09",96,4,1,1
"63",131,"right","SHINEd_Cow.jpg","congruent","n",586.757884,"j","j","right","(862, 362)",320,1,589.374186397115,-53.8282951437944," 1054.86",361,3,1,1
"63",132,"left","SHINEd_Bus_School.jpg","congruent","m",662.721186,"f","f","left","(148, 362)",171,1,665.497329143398,22.2948476024887,"  968.49",34,4,1,1
"63",133,"left","SHINEd_Eggplant.jpg","incongruent","n",604.22632,"j","j","right","(148, 362)",267,1,607.162303889681,-36.0401776512283,"  842.09",300,3,1,1
"63",134,"left","SHINEd_Staircase_Curving.jpg","congruent","m",543.642971,"f","f","left","(148, 362)",115,1,546.738795635964,-96.4636859049453," 1142.55",323,3,0,0
"63",135,"right","SHINEd_Lighter_Yellow.jpg","incongruent","m",579.867533,"f","f","left","(862, 362)",104,1,583.123198382247,-60.0792831586622,"  751.20",252,3,0,0
"63",136,"right","SHINEd_RibbonSpool.jpg","incongruent","m",744.175805,"f","f","left","(862, 362)",80,1,747.59131112853,104.388829587621,"  972.87",347,3,1,1
"63",137,"left","SHINEd_KitchenCloth.jpg","congruent","m",665.813572,"f","f","left","(148, 362)",143,1,669.388918874813,26.1864373339039,"  990.59",270,3,0,0
"63",138,"right","SHINEd_Camel_Bactrian.jpg","congruent","n",839.554322,"j","j","right","(862, 362)",344,1,843.289509621096,200.087028080187,"  833.16",48,4,1,1
"63",139,"left","SHINEd_Olives.jpg","incongruent","n",554.582133,"j","j","right","(148, 362)",419,1,558.477161367379,-84.72532017353,"  662.30",170,3,1,1
"63",140,"right","SHINEd_Scorpion.jpg","congruent","n",538.237676,"j","j","right","(862, 362)",396,1,542.292545113662,-100.909936427247,"10446.54",231,3,1,1
"63",141,"right","SHINEd_Fridge.jpg","incongruent","m",581.246836,"f","f","left","(862, 362)",44,1,585.461545859945,-57.7409356809639," 1287.81",223,3,0,0
"63",142,"right","SHINEd_housefly.jpg","congruent","n",616.916765,"j","j","right","(862, 362)",420,1,621.291315606228,-21.9111659346808," 4397.56",327,2,0,0
"63",143,"left","SHINEd_goldfish.jpg","incongruent","n",660.826902,"j","j","right","(148, 362)",275,1,665.361293352511,22.1588118116022," 1180.71",189,2,0,0
"63",144,"left","SHINEd_Bed_Hospital.jpg","congruent","m",816.163342,"f","f","left","(148, 362)",207,1,820.857574098794,177.655092557885," 2101.90",286,3,0,0
"63",145,"left","SHINEd_pine-cone-.jpg","incongruent","n",834.817936,"j","j","right","(148, 362)",399,1,839.672008845077,196.469527304168," 4343.59",369,3,1,1
"63",146,"right","SHINEd_FireExtinguisher.jpg","incongruent","m",NA,"miss","f","left","(862, 362)",112,0,NA,NA," 1295.16",310,4,1,1
"63",147,"left","SHINEd_Box_GiftTopView.jpg","congruent","m",748.594984,"f","f","left","(148, 362)",219,1,753.768738337643,110.566256796734," 1157.56",218,3,1,1
"63",148,"right","SHINEd_Bib.jpg","incongruent","m",750.710038,"f","f","left","(862, 362)",136,1,756.043633083926,112.841151543017," 1209.27",94,4,1,1
"63",149,"left","SHINEd_Candleholder_LampShaped.jpg","congruent","m",507.574515,"f","f","left","(148, 362)",111,1,513.067950830209,-130.1345307107," 6487.16",186,2,0,0
"63",150,"right","SHINEd_lorises.jpg","congruent","n",678.832302,"f","j","right","(862, 362)",428,0,684.485578576493,41.2830970355835,"  868.14",406,3,1,1
"63",151,"left","SHINEd_firetruck.jpg","congruent","m",515.603323,"f","f","left","(148, 362)",179,1,521.416440322776,-121.786041218133," 1430.76",180,3,0,0
"63",152,"left","SHINEd_sanddollar.jpg","incongruent","n",823.440219,"j","j","right","(148, 362)",295,1,829.413177069059,186.21069552815,"  768.93",87,4,1,1
"63",153,"right","SHINEd_Key_Car.jpg","incongruent","m",730.436651,"f","f","left","(862, 362)",176,1,736.569449815342,93.3669682744326," 1045.57",380,2,0,0
"63",154,"right","SHINEd_Kangaroo.jpg","congruent","n",877.477114,"j","j","right","(862, 362)",312,1,883.769753561625,240.567272020716," 1692.90",411,1,0,0
"63",155,"left","SHINEd_Car_Sedan.jpg","congruent","m",633.630778,"f","f","left","(148, 362)",183,1,640.083258307908,-3.11922323300134,"  843.90",455,3,0,0
"63",156,"left","SHINEd_ashtray.jpg","congruent","m",684.033571,"f","f","left","(148, 362)",227,1,690.645892054191,47.4434105132818,"  928.05",144,4,1,1
"63",157,"right","SHINEd_seatAirplane.jpg","incongruent","m",599.365556,"f","f","left","(862, 362)",172,1,606.137717800474,-37.0647637404352," 1204.68",386,4,1,1
"63",158,"right","SHINEd_Hat_Explorer.jpg","incongruent","m",887.810907,"f","f","left","(862, 362)",188,1,894.742909546757,251.540428005848," 3203.80",309,3,1,1
"63",159,"right","SHINEd_CoffeeBeans.jpg","congruent","n",467.918033,"j","j","right","(862, 362)",332,1,475.00987629304,-168.192605247869," 1214.00",431,3,1,1
"63",160,"left","SHINEd_KiddiePool.jpg","congruent","m",503.699751,"f","f","left","(148, 362)",87,1,510.951435039323,-132.251046501586," 1492.54",373,3,1,1
"63",161,"right","SHINEd_CinderBlock.jpg","incongruent","m",523.823274,"f","f","left","(862, 362)",108,1,531.234798785606,-111.967682755303,"  803.60",336,3,0,0
"63",162,"right","SHINEd_papaya.jpg","congruent","n",NA,"miss","j","right","(862, 362)",292,0,NA,NA,"  978.53",127,3,0,0
"63",163,"left","SHINEd_tooth.jpg","incongruent","n",825.79855,"j","j","right","(148, 362)",363,1,833.529756278172,190.327274737263,"  900.61",370,4,1,1
"63",164,"left","SHINEd_MalletJudge.jpg","congruent","m",549.884828,"f","f","left","(148, 362)",35,1,557.775875024455,-85.4266065164539,"  872.54",433,3,1,1
"63",165,"right","SHINEd_IroningBoard.jpg","incongruent","m",584.249517,"f","f","left","(862, 362)",52,1,592.300404770738,-50.9020767701709,"  696.68",124,4,1,1
"63",166,"left","SHINEd_zebra.jpg","incongruent","n",465.356669,"j","j","right","(148, 362)",447,1,473.567397517021,-169.635084023888," 2437.27",291,4,1,1
"63",167,"left","SHINEd_Bandage_Adhesive.jpg","congruent","m",740.619595,"f","f","left","(148, 362)",107,1,748.990164263304,105.787682722395," 1202.12",134,4,1,1
"63",168,"right","SHINEd_Clothespin_Red.jpg","incongruent","m",568.543767,"f","f","left","(862, 362)",60,1,577.074177009587,-66.1283045313217," 1549.74",22,4,1,1
"63",169,"left","SHINEd_Bowtie.jpg","congruent","m",651.178333,"f","f","left","(148, 362)",191,1,659.86858375587,16.6661022149613," 1279.09",287,3,1,1
"63",170,"right","SHINEd_rhino.jpg","congruent","n",598.389,"j","j","right","(862, 362)",352,1,607.239091502153,-35.9633900387556," 1471.39",446,2,1,NA
"63",171,"left","SHINEd_Basket_Plastic.jpg","congruent","m",626.901998,"f","f","left","(148, 362)",211,1,635.911930248437,-7.29055129247254," 1188.06",407,2,1,NA
"63",172,"left","SHINEd_Flower_Daisy.jpg","incongruent","n",724.688865,"j","j","right","(148, 362)",351,1,733.858637994719,90.6561564538104," 2735.70",30,2,0,0
"63",173,"right","SHINEd_raspberry.jpg","congruent","n",593.888768,"j","j","right","(862, 362)",456,1,603.218381741003,-39.9840997999065," 1174.28",102,3,1,1
"63",174,"left","SHINEd_organutan.jpg","incongruent","n",757.014606,"j","j","right","(148, 362)",343,1,766.504060487286,123.301578946376,"  870.39",133,4,1,1
"63",175,"right","SHINEd_Boar.jpg","congruent","n",441.5457,"j","j","right","(862, 362)",264,1,451.194995233569,-192.00748630734," 1159.86",265,3,1,1
"63",176,"left","SHINEd_PaperCutter.jpg","congruent","m",516.994193,"f","f","left","(148, 362)",31,1,526.803328979852,-116.399152561057," 1568.49",50,4,1,1
"63",177,"right","SHINEd_CanOpener.jpg","incongruent","m",658.340972,"f","f","left","(862, 362)",160,1,668.309948726135,25.1074671852257," 1344.59",137,4,1,1
"63",178,"left","SHINEd_CapGraduation.jpg","congruent","m",732.276399,"f","f","left","(148, 362)",187,1,742.405216472418,99.2027349315087,"  883.29",322,4,1,1
"63",179,"left","SHINEd_Sand.jpg","incongruent","n",688.635398,"j","j","right","(148, 362)",279,1,698.924056218701,55.7215746777918," 1081.12",249,4,1,1
"63",180,"right","SHINEd_Bird_CanadianGoose.jpg","congruent","n",611.564226,"j","j","right","(862, 362)",388,1,622.012724964984,-21.1897565759252," 1079.49",36,4,1,1
"63",181,"left","SHINEd_Cable_AudioSplitter.jpg","congruent","m",671.129822,"f","f","left","(148, 362)",91,1,681.738161711267,38.5356801703579,"  701.60",162,4,1,1
"63",182,"left","SHINEd_Peach.jpg","incongruent","n",NA,"miss","j","right","(148, 362)",323,0,NA,NA," 2753.00",357,3,1,1
"63",183,"left","SHINEd_Box_Staples.jpg","congruent","m",927.499278,"f","f","left","(148, 362)",67,1,938.427299203833,295.224817662924," 1420.48",328,3,1,1
"63",184,"right","SHINEd_Blackboard.jpg","incongruent","m",770.73011,"f","f","left","(862, 362)",72,1,781.817971950116,138.615490409207," 1110.72",398,4,1,1
"63",185,"left","SHINEd_whistle.jpg","congruent","m",886.768234,"f","f","left","(148, 362)",79,1,898.015936696399,254.81345515549,"  957.86",122,4,1,1
"63",186,"right","SHINEd_Bus_DoubleDecker.jpg","incongruent","m",721.683013,"f","f","left","(862, 362)",184,1,733.090556442682,89.888074901773," 1671.05",222,3,1,1
"63",187,"right","SHINEd_Leaf_Green.jpg","congruent","n",559.320739,"j","j","right","(862, 362)",448,1,570.888123188965,-72.3143583519439," 2286.50",150,2,1,NA
"63",188,"left","SHINEd_Stingray.jpg","incongruent","n",700.001778,"j","j","right","(148, 362)",315,1,711.729002935248,68.5265213943391,"  814.30",185,4,1,1
"63",189,"left","SHINEd_edamame.jpg","incongruent","n",615.122188,"j","j","right","(148, 362)",303,1,627.009253681531,-16.1932278593777," 1032.55",427,3,1,1
"63",190,"right","SHINEd_groundhog.jpg","congruent","n",556.355037,"j","j","right","(862, 362)",404,1,568.401943427814,-74.8005381130947," 1215.30",330,3,0,0
"63",191,"right","SHINEd_Lettuce_GreenLeaf.jpg","congruent","n",414.942904,"j","j","right","(862, 362)",248,1,427.149651174097,-216.052830366812," 2824.24",3,2,0,0
"63",192,"left","SHINEd_Swan.jpg","incongruent","n",522.226647,"f","j","right","(148, 362)",443,0,534.59323492038,-108.609246620529,"  918.18",263,3,0,0
"63",193,"right","SHINEd_Bottle_Bleach.jpg","incongruent","m",566.100366,"f","f","left","(862, 362)",212,1,578.626794666663,-64.5756868742456," 1254.45",146,3,0,0
"63",194,"left","SHINEd_CDstack.jpg","congruent","m",482.620981,"f","f","left","(148, 362)",15,1,495.307250412946,-147.895231127963," 1232.22",305,2,0,0
"63",195,"right","SHINEd_Garbage_GreenBin.jpg","incongruent","m",702.882266,"f","f","left","(862, 362)",144,1,715.728376159229,72.5258946183204,"  648.52",56,4,1,1
"63",196,"right","SHINEd_bullrush.jpg","congruent","n",952.518346,"f","j","right","(862, 362)",324,0,965.524296905513,322.321815364603," 2392.02",41,2,0,0
"63",197,"right","SHINEd_Clam.jpg","congruent","n",526.920363,"j","j","right","(862, 362)",340,1,540.086154651796,-103.116326889113,"  972.99",40,4,1,1
"63",198,"right","SHINEd_gazelle.jpg","congruent","n",370.325256,"j","j","right","(862, 362)",268,1,383.650888398079,-259.55159314283,"  711.76",151,4,1,1
"63",199,"right","SHINEd_SnowGlobe.jpg","incongruent","m",445.25904,"f","f","left","(862, 362)",84,1,458.744513144362,-184.457968396547,"  929.20",414,4,1,1
"63",200,"left","SHINEd_Tractor_Orange.jpg","congruent","m",639.979305,"f","f","left","(148, 362)",175,1,653.624618890645,10.4221373497357," 1519.59",45,4,1,1
"63",201,"right","SHINEd_anteater.jpg","congruent","n",683.991243,"j","j","right","(862, 362)",368,1,697.796397636928,54.5939160960188," 1206.42",168,3,0,0
"63",202,"left","SHINEd_elbow.jpg","incongruent","n",807.365959,"j","j","right","(148, 362)",263,1,821.330954383211,178.128472842302," 1452.86",255,4,1,1
"63",203,"right","SHINEd_Plum.jpg","congruent","n",796.272759,"f","j","right","(862, 362)",244,0,810.397595129494,167.195113588585," 2463.79",221,4,1,1
"63",204,"left","SHINEd_Dress_Blue.jpg","congruent","m",719.408897,"f","f","left","(148, 362)",3,1,733.693573875777,90.4910923348679," 1494.79",225,4,1,1
"63",205,"right","SHINEd_Tape_Scotch.jpg","incongruent","m",579.831766,"f","f","left","(862, 362)",228,1,594.27628362206,-48.926197918849," 1004.26",364,3,1,1
"63",206,"right","SHINEd_Glasses_Reading.jpg","incongruent","m",591.634712,"f","f","left","(862, 362)",200,1,606.239070368343,-36.963411172566," 1521.70",277,3,1,1
"63",207,"right","SHINEd_alpaca_fo.jpg","congruent","n",523.749812,"j","j","right","(862, 362)",400,1,538.514011114626,-104.688470426283," 1190.48",169,3,1,1
"63",208,"left","SHINEd_sunflowers.jpg","incongruent","n",695.478751,"j","j","right","(148, 362)",395,1,710.402790860909,67.2003093200001," 1126.77",400,3,1,1
"63",209,"left","SHINEd_Hippopotamus.jpg","incongruent","n",716.404738,"f","j","right","(148, 362)",367,0,731.488618607192,88.2861370662831," 1243.21",358,3,1,1
"63",210,"left","SHINEd_Toolbox_RedOpen.jpg","congruent","m",688.334335,"f","f","left","(148, 362)",39,1,703.578056353475,60.3755748125662," 2381.73",204,2,1,NA
"63",211,"right","SHINEd_Squid_Pink.jpg","congruent","n",564.635593,"j","j","right","(862, 362)",336,1,580.039155099758,-63.1633264411508," 1263.62",76,3,1,1
"63",212,"left","SHINEd_Ferret.jpg","incongruent","n",550.736843,"j","j","right","(148, 362)",239,1,566.300245846041,-76.9022356948677," 1612.59",416,2,1,NA
"63",213,"left","SHINEd_clementine.jpg","incongruent","n",850.631952,"j","j","right","(148, 362)",359,1,866.355195592324,223.152714051415,"  711.10",51,4,1,1
"63",214,"right","SHINEd_chick hatch.jpg","congruent","n",780.414077,"j","j","right","(862, 362)",384,1,796.297161338607,153.094679797698," 1255.77",360,4,1,1
"63",215,"left","SHINEd_feather.jpg","incongruent","n",NA,"miss","j","right","(148, 362)",415,0,NA,NA,"  701.82",196,3,1,1
"63",216,"left","SHINEd_Hedgehog.jpg","incongruent","n",419.507468,"j","j","right","(148, 362)",243,1,435.710233831174,-207.492247709736," 1334.44",326,3,0,0
"63",217,"right","SHINEd_Pig.jpg","congruent","n",415.680045,"j","j","right","(862, 362)",424,1,432.042651577457,-211.159829963452," 1065.70",316,4,1,1
"63",218,"right","SHINEd_Cassette_Audio.jpg","incongruent","m",546.92533,"f","f","left","(862, 362)",148,1,563.44777732374,-79.7547042171695," 1910.43",31,4,1,1
"63",219,"right","SHINEd_Hammock.jpg","incongruent","m",669.552554,"f","f","left","(862, 362)",208,1,686.234842070023,43.0323605291136," 2766.97",244,4,1,1
"63",220,"right","SHINEd_Cougar.jpg","congruent","n",496.412531,"j","j","right","(862, 362)",276,1,513.254659816306,-129.947821724603," 1135.09",294,2,1,NA
"63",221,"right","SHINEd_SpiderWeb.jpg","congruent","n",748.58494,"j","j","right","(862, 362)",348,1,765.586909562589,122.38442802168,"  853.97",442,4,1,1
"63",222,"right","SHINEd_PassionFruit.jpg","congruent","n",545.858422,"j","j","right","(862, 362)",452,1,563.020232308872,-80.1822492320373," 1058.52",354,2,1,NA
"63",223,"right","SHINEd_Buffalo.jpg","congruent","n",420.712077,"f","j","right","(862, 362)",432,0,438.033728055155,-205.168753485754,"  622.05",97,3,1,1
"63",224,"right","SHINEd_Bag_Camera.jpg","incongruent","m",544.685575,"f","f","left","(862, 362)",216,1,562.167066801438,-81.0354147394712,"  862.79",70,3,0,0
"63",225,"right","SHINEd_DoubleBass.jpg","incongruent","m",708.318025,"f","f","left","(862, 362)",8,1,725.959357547721,82.7568760068119," 1992.68",171,3,0,0
"63",226,"right","SHINEd_Hazelnut.jpg","congruent","n",567.685311,"j","j","right","(862, 362)",252,1,585.486484294004,-57.7159972469052,"  958.74",248,3,0,0
"63",227,"right","SHINEd_Oneholepunch.jpg","incongruent","m",522.164885,"f","f","left","(862, 362)",76,1,540.125899040287,-103.076582500622," 1157.33",319,3,1,1
"63",228,"left","SHINEd_bear.jpg","incongruent","n",653.248513,"j","j","right","(148, 362)",271,1,671.36936778657,28.166886245661," 1502.69",324,3,1,1
