"participant","trial_index","screenposition","stimulus","trialtype","classifyenc","rt","response","responsecorrect","responsecorrect_side","screenlocation","stimnum","acc","rtResidual","rtResidualC","rt_rec","trialno_rec","ratingConfidence","acc_rec","memoryHits.hc"
"64",1,"right","SHINEd_Chimpanzee.jpg","incongruent","n",922.915632,"f","f","left","(862, 362)",255,1,911.866438255555,293.216309291919," 2230.34",273,3,1,1
"64",2,"right","SHINEd_Razor.jpg","congruent","m",566.113277,"j","j","right","(862, 362)",119,1,555.161698813488,-63.4884301501483," 1227.37",352,3,0,0
"64",3,"right","SHINEd_KeyHook_Empty.jpg","congruent","m",609.394569,"j","j","right","(862, 362)",223,1,598.540606371426,-20.1095225922099," 1872.25",81,2,1,NA
"64",4,"right","SHINEd_Flower_Daisy.jpg","incongruent","n",573.012269,"f","f","left","(862, 362)",351,1,562.255921929365,-56.3942070342717," 2726.26",163,3,1,1
"64",5,"right","SHINEd_Toolbox_RedOpen.jpg","congruent","m",729.408877,"j","j","right","(862, 362)",39,1,718.750145487303,100.100016523667," 1382.64",434,3,1,1
"64",6,"right","SHINEd_Seahorse.jpg","incongruent","n",631.026136,"f","f","left","(862, 362)",347,1,620.465020045241,1.81489108160485," 1224.70",112,4,1,1
"64",7,"left","SHINEd_Dill.jpg","congruent","n",NA,"miss","f","left","(148, 362)",256,0,NA,NA," 1736.54",5,2,0,0
"64",8,"left","SHINEd_Hammock.jpg","incongruent","m",645.32488,"j","j","right","(148, 362)",208,1,634.958995161118,16.3088661974815," 1030.95",88,4,1,1
"64",9,"left","SHINEd_mint.jpg","congruent","n",698.405108,"f","f","left","(148, 362)",360,1,688.136838719056,69.4867097554198," 1285.94",159,3,0,0
"64",10,"right","SHINEd_Ferret.jpg","incongruent","n",574.06169,"f","f","left","(862, 362)",239,1,563.891036276994,-54.759092686642," 1334.67",186,2,1,NA
"64",11,"right","SHINEd_Staircase_Curving.jpg","congruent","m",539.3587,"j","j","right","(862, 362)",115,1,529.285661834933,-89.3644671287037,"  833.13",354,4,1,1
"64",12,"right","SHINEd_feather.jpg","incongruent","n",700.905906,"f","f","left","(862, 362)",415,1,690.930483392871,72.2803544292345," 1118.98",282,4,1,1
"64",13,"right","SHINEd_Box_GiftTopView.jpg","congruent","m",659.605072,"j","j","right","(862, 362)",219,1,649.727264950809,31.0771359871728," 1199.02",410,4,1,1
"64",14,"left","SHINEd_Oneholepunch.jpg","incongruent","m",518.91787,"j","j","right","(148, 362)",76,1,509.137678508748,-109.512450454889," 2110.09",223,3,1,1
"64",15,"right","SHINEd_Bus_School.jpg","congruent","m",620.623698,"j","j","right","(862, 362)",171,1,610.941122066686,-7.7090068969506,"  895.44",320,4,1,1
"64",16,"left","SHINEd_Card_TwoSpade.jpg","incongruent","m",705.108354,"j","j","right","(148, 362)",88,1,695.523393624624,76.8732646609876,"  828.02",416,3,1,1
"64",17,"right","SHINEd_MannequinBust.jpg","congruent","m",556.810495,"j","j","right","(862, 362)",103,1,547.323150182562,-71.3269787810741,"  751.74",430,4,1,1
"64",18,"right","SHINEd_moth.jpg","incongruent","n",617.378874,"f","f","left","(862, 362)",427,1,607.989144740501,-10.6609842231358," 1549.68",269,3,1,1
"64",19,"left","SHINEd_Tape_Scotch.jpg","incongruent","m",708.706394,"j","j","right","(148, 362)",228,1,699.414280298439,80.7641513348026," 1079.87",275,4,1,1
"64",20,"left","SHINEd_PassionFruit.jpg","congruent","n",641.515562,"f","f","left","(148, 362)",452,1,632.321063856377,13.6709348927408," 1152.36",76,4,1,1
"64",21,"right","SHINEd_Iguana.jpg","incongruent","n",517.189112,"f","f","left","(862, 362)",387,1,508.092229414315,-110.557899549321," 1007.30",194,4,1,1
"64",22,"left","SHINEd_alarm.jpg","incongruent","m",585.766718,"j","j","right","(148, 362)",96,1,576.767450972254,-41.8826779913827," 1039.75",59,4,1,1
"64",23,"right","SHINEd_LightBulb_White.jpg","congruent","m",420.776303,"j","j","right","(862, 362)",47,1,411.874651530192,-206.775477433444,"  912.16",114,4,1,1
"64",24,"right","SHINEd_OnionRed.jpg","incongruent","n",433.359771,"j","f","left","(862, 362)",383,0,424.55573508813,-194.094393875506," 1678.60",242,3,1,1
"64",25,"right","SHINEd_Basket_Plastic.jpg","congruent","m",510.262715,"j","j","right","(862, 362)",211,1,501.556294646069,-117.093834317568," 1177.88",300,2,1,NA
"64",26,"left","SHINEd_Dart.jpg","incongruent","m",754.082556,"j","j","right","(148, 362)",20,1,745.473751204007,126.82362224037,"  753.82",280,4,1,1
"64",27,"right","SHINEd_Playard.jpg","congruent","m",635.841446,"f","j","right","(862, 362)",59,0,627.330256761945,8.68012779830878," 1597.16",37,2,0,0
"64",28,"left","SHINEd_vulture.jpg","congruent","n",760.99121,"f","f","left","(148, 362)",436,1,752.577636319883,133.927507356247," 2479.78",442,3,1,1
"64",29,"right","SHINEd_dates_fresh.jpg","incongruent","n",614.315085,"f","f","left","(862, 362)",319,1,605.999126877822,-12.6510020858147," 4186.06",70,4,1,1
"64",30,"right","SHINEd_Fence_Wooden.jpg","congruent","m",619.332629,"j","j","right","(862, 362)",163,1,611.11428643576,-7.53584252787641," 1008.26",56,4,1,1
"64",31,"left","SHINEd_ScannerShoplifting.jpg","incongruent","m",702.608688,"j","j","right","(148, 362)",100,1,694.487960993698,75.8378320300619," 1425.38",415,3,1,1
"64",32,"left","SHINEd_SnowGlobe.jpg","incongruent","m",538.568075,"j","j","right","(148, 362)",84,1,530.544963551637,-88.1051654119998," 1271.66",38,4,1,1
"64",33,"left","SHINEd_maggotts.jpg","congruent","n",718.925815,"f","f","left","(148, 362)",392,1,711.000319109575,92.3501901459384," 1256.31",161,4,1,1
"64",34,"left","SHINEd_Bus_DoubleDecker.jpg","incongruent","m",803.893512,"j","j","right","(148, 362)",184,1,796.065631667513,177.415502703877,"  885.15",452,4,1,1
"64",35,"left","SHINEd_HorseshoeCrab.jpg","congruent","n",887.941772,"f","f","left","(148, 362)",260,1,880.211507225451,261.561378261815,"  935.93",155,3,1,1
"64",36,"right","SHINEd_Olives.jpg","incongruent","n",620.170952,"f","f","left","(862, 362)",419,1,612.53830278339,-6.11182618024668," 1253.90",233,4,1,1
"64",37,"left","SHINEd_Hazelnut.jpg","congruent","n",462.590866,"f","f","left","(148, 362)",252,1,455.055832341328,-163.594296622308," 1671.15",425,3,1,1
"64",38,"left","SHINEd_Bib.jpg","incongruent","m",746.999071,"j","j","right","(148, 362)",136,1,739.561652899266,120.91152393563,"  896.17",431,4,1,1
"64",39,"right","SHINEd_Snowboard.jpg","congruent","m",665.339924,"j","j","right","(862, 362)",23,1,658.000121457205,39.3499924935681," 1017.08",99,4,1,1
"64",40,"right","SHINEd_Shark_GreatWhite.jpg","incongruent","n",660.720277,"f","f","left","(862, 362)",287,1,653.478090015143,34.8279610515064,"  912.48",341,4,1,1
"64",41,"right","SHINEd_MousepadAndMouse.jpg","congruent","m",759.789448,"j","j","right","(862, 362)",99,1,752.644876573081,133.994747609445," 1006.25",310,4,1,1
"64",42,"right","SHINEd_Potato.jpg","incongruent","n",613.810434,"f","f","left","(862, 362)",423,1,606.763478131019,-11.8866508326171," 1038.44",108,4,1,1
"64",43,"right","SHINEd_FireHydrant.jpg","congruent","m",530.284293,"j","j","right","(862, 362)",167,1,523.334952688958,-95.3151762746787," 2721.16",276,3,1,1
"64",44,"right","SHINEd_Stingray.jpg","incongruent","n",798.308973,"f","f","left","(862, 362)",315,1,791.457248246896,172.80711928326,"  989.97",342,4,1,1
"64",45,"left","SHINEd_DrainPlug.jpg","incongruent","m",642.45833,"j","j","right","(148, 362)",140,1,635.704220804834,17.0540918411978,"  968.55",162,4,1,1
"64",46,"left","SHINEd_Banana.jpg","congruent","n",633.034595,"f","f","left","(148, 362)",376,1,626.378101362772,7.72797239913602," 1527.93",313,2,1,NA
"64",47,"right","SHINEd_Sand.jpg","incongruent","n",779.895875,"j","f","left","(862, 362)",279,0,773.336996920711,154.686867957074," 1430.73",268,4,1,1
"64",48,"left","SHINEd_Bolt.jpg","incongruent","m",610.051185,"j","j","right","(148, 362)",32,1,603.589922478649,-15.0602064849874,"  997.37",325,3,1,1
"64",49,"left","SHINEd_raspberry.jpg","congruent","n",780.718143,"f","f","left","(148, 362)",456,1,774.354496036587,155.704367072951," 1465.30",278,2,1,NA
"64",50,"right","SHINEd_aloe.jpg","incongruent","n",498.753269,"f","f","left","(862, 362)",299,1,492.487237594525,-126.162891369111," 1072.27",279,3,1,1
"64",51,"left","SHINEd_alpaca_fo.jpg","congruent","n",750.426815,"f","f","left","(148, 362)",400,1,744.258399152464,125.608270188827,"  936.31",321,4,1,1
"64",52,"left","SHINEd_blackberry.jpg","congruent","n",465.281632,"f","f","left","(148, 362)",280,1,459.210831710402,-159.439297253234,"  935.23",219,4,1,1
"64",53,"left","SHINEd_EspressoMachine.jpg","incongruent","m",606.283757,"j","j","right","(148, 362)",156,1,600.31057226834,-18.339556695296,"  970.54",371,3,0,0
"64",54,"left","SHINEd_housefly.jpg","congruent","n",536.801969,"f","f","left","(148, 362)",420,1,530.926399826279,-87.7237291373577," 1150.41",412,4,1,1
"64",55,"right","SHINEd_bat.jpg","incongruent","n",716.359585,"f","f","left","(862, 362)",403,1,710.581631384217,91.9315024205806," 1246.97",156,2,0,0
"64",56,"right","SHINEd_sanddollar.jpg","incongruent","n",641.673993,"f","f","left","(862, 362)",295,1,635.993654942155,17.3435259785188," 1464.11",437,4,1,1
"64",57,"left","SHINEd_Clam.jpg","congruent","n",837.998214,"f","f","left","(148, 362)",340,1,832.415491500093,213.765362536457,"  737.93",297,4,1,1
"64",58,"left","SHINEd_IroningBoard.jpg","incongruent","m",546.059498,"j","j","right","(148, 362)",52,1,540.574391058032,-78.0757379056046," 1941.97",317,2,1,NA
"64",59,"left","SHINEd_blueberries.jpg","congruent","n",540.737788,"f","f","left","(148, 362)",232,1,535.35029661597,-83.2998323476663," 1550.68",350,2,1,NA
"64",60,"right","SHINEd_sunflowers.jpg","incongruent","n",832.857196,"f","f","left","(862, 362)",395,1,827.567320173908,208.917191210272," 1014.10",367,3,1,1
"64",61,"right","SHINEd_Seashell_RoseMurex.jpg","incongruent","n",636.314774,"f","f","left","(862, 362)",327,1,631.122513731847,12.4723847682103," 1967.28",137,3,1,1
"64",62,"right","SHINEd_whistle.jpg","congruent","m",761.487226,"j","j","right","(862, 362)",79,1,756.392581289785,137.742452326148," 1254.69",101,2,1,NA
"64",63,"right","SHINEd_penguin.jpg","incongruent","n",604.277874,"f","f","left","(862, 362)",307,1,599.280844847723,-19.3692841159132," 1038.21",145,3,1,1
"64",64,"right","SHINEd_Barbecue_Gas.jpg","congruent","m",593.108422,"j","j","right","(862, 362)",159,1,588.209008405661,-30.4411205579749," 2558.15",332,3,1,1
"64",65,"left","SHINEd_Clothespin_Red.jpg","incongruent","m",693.058344,"j","j","right","(148, 362)",60,1,688.2565459636,69.6064169999634," 1242.94",347,3,1,1
"64",66,"left","SHINEd_Bird_CanadianGoose.jpg","congruent","n",479.858021,"f","f","left","(148, 362)",388,1,475.153838521538,-143.496290442098," 3133.01",229,2,0,0
"64",67,"left","SHINEd_Boombox.jpg","incongruent","m",548.765431,"j","j","right","(148, 362)",92,1,544.158864079476,-74.49126488416," 1671.30",449,3,1,1
"64",68,"left","SHINEd_Pitcher.jpg","incongruent","m",576.304228,"j","j","right","(148, 362)",56,1,571.795276637415,-46.8548523262218," 2673.84",47,2,0,0
"64",69,"left","SHINEd_anteater.jpg","congruent","n",782.420563,"f","f","left","(148, 362)",368,1,778.009227195353,159.359098231717," 1591.88",398,3,0,0
"64",70,"left","SHINEd_Earrings_Dangling.jpg","incongruent","m",713.387193,"j","j","right","(148, 362)",196,1,709.073472753291,90.4233437896548," 1005.99",209,4,1,1
"64",71,"left","SHINEd_Plum.jpg","congruent","n",605.48362,"f","f","left","(148, 362)",244,1,601.267515311229,-17.382613652407," 1750.01",231,3,1,1
"64",72,"left","SHINEd_PencilCase.jpg","incongruent","m",530.317107,"j","j","right","(148, 362)",68,1,526.198617869168,-92.4515110944687,"  797.36",441,4,1,1
"64",73,"left","SHINEd_dove.jpg","congruent","n",526.906382,"f","f","left","(148, 362)",308,1,522.885508427106,-95.7646205365304," 3639.13",73,2,1,NA
"64",74,"right","SHINEd_puffer-fish.jpg","incongruent","n",540.102572,"f","f","left","(862, 362)",339,1,536.179313985044,-82.4708149785921," 1145.05",440,4,1,1
"64",75,"left","SHINEd_Lobster.jpg","congruent","n",680.610581,"f","f","left","(148, 362)",288,1,676.784938542983,58.1348095793462,"  905.61",326,3,1,1
"64",76,"left","SHINEd_Squid_Pink.jpg","congruent","n",541.320058,"f","f","left","(148, 362)",336,1,537.592031100921,-81.0580978627156," 1670.59",104,2,1,NA
"64",77,"left","SHINEd_Tie.jpg","incongruent","m",564.440992,"j","j","right","(148, 362)",192,1,560.810580658859,-57.8395483047773," 1039.62",28,4,1,1
"64",78,"right","SHINEd_MalletJudge.jpg","congruent","m",768.471649,"f","j","right","(862, 362)",35,0,764.938853216797,146.288724253161," 1863.30",361,2,0,0
"64",79,"left","SHINEd_SpinningWheel.jpg","incongruent","m",685.545477,"j","j","right","(148, 362)",124,1,682.110296774736,63.4601678110993," 1621.78",288,2,0,0
"64",80,"left","SHINEd_groundhog.jpg","congruent","n",586.204701,"f","f","left","(148, 362)",404,1,582.867136332674,-35.7829926309625," 1912.31",149,1,0,0
"64",81,"right","SHINEd_turkey.jpg","incongruent","n",621.714221,"f","f","left","(862, 362)",391,1,618.474271890612,-0.175857073024225," 1200.13",366,2,1,NA
"64",82,"left","SHINEd_Boar.jpg","congruent","n",602.415692,"f","f","left","(148, 362)",264,1,599.273358448551,-19.3767705150859,"  980.13",383,2,0,0
"64",83,"right","SHINEd_tooth.jpg","incongruent","n",NA,"miss","f","left","(862, 362)",363,0,NA,NA," 1012.06",387,4,1,1
"64",84,"left","SHINEd_rhino.jpg","congruent","n",578.593735,"f","f","left","(148, 362)",352,1,575.646632564427,-43.0034963992093," 3679.33",260,3,1,1
"64",85,"left","SHINEd_Guitar_Acoustic.jpg","incongruent","m",496.763518,"j","j","right","(148, 362)",12,1,493.914031122365,-124.736097841271,"  706.20",356,4,1,1
"64",86,"left","SHINEd_Pig.jpg","congruent","n",485.263641,"f","f","left","(148, 362)",424,1,482.511769680304,-136.138359283333," 1256.90",324,3,1,1
"64",87,"left","SHINEd_Lion.jpg","congruent","n",455.494615,"f","f","left","(148, 362)",316,1,452.840359238242,-165.809769725394," 1247.49",150,3,1,1
"64",88,"right","SHINEd_tentacle.jpg","incongruent","n",604.256257,"f","f","left","(862, 362)",247,1,601.69961679618,-16.9505121674562," 2056.12",40,3,1,1
"64",89,"left","SHINEd_lorises.jpg","congruent","n",497.213615,"f","f","left","(148, 362)",428,1,494.754590354118,-123.895538609518," 3732.73",63,2,1,NA
"64",90,"right","SHINEd_Eggplant.jpg","incongruent","n",886.340414,"j","f","left","(862, 362)",267,0,883.979004912057,265.32887594842,"  952.26",135,4,1,1
"64",91,"right","SHINEd_Owl.jpg","incongruent","n",658.192236,"f","f","left","(862, 362)",407,1,655.928442469995,37.2783135063586," 2712.46",455,3,1,1
"64",92,"right","SHINEd_FloppyDisk.jpg","congruent","m",806.854959,"j","j","right","(862, 362)",147,1,804.688781027933,186.038652064297,"  901.06",338,3,1,1
"64",93,"left","SHINEd_Outhouse.jpg","incongruent","m",620.367488,"j","j","right","(148, 362)",164,1,618.298925585872,-0.35120337776485,"  992.00",95,4,1,1
"64",94,"right","SHINEd_Belt.jpg","congruent","m",NA,"miss","j","right","(862, 362)",195,0,NA,NA," 1415.40",208,3,1,1
"64",95,"right","SHINEd_edamame.jpg","incongruent","n",636.876336,"f","f","left","(862, 362)",303,1,635.003004701748,16.3528757381118," 1232.29",353,4,1,1
"64",96,"right","SHINEd_Fish_Swordfish.jpg","incongruent","n",591.085344,"f","f","left","(862, 362)",331,1,589.309628259686,-29.34050070395,"  982.40",346,4,1,1
"64",97,"right","SHINEd_Binoculars.jpg","congruent","m",540.119599,"j","j","right","(862, 362)",199,1,538.441498817625,-80.2086301460117," 1277.81",15,2,0,0
"64",98,"right","SHINEd_Hedgehog.jpg","incongruent","n",544.752735,"f","f","left","(862, 362)",243,1,543.172250375563,-75.4778785880734," 1176.08",373,2,1,NA
"64",99,"left","SHINEd_TigerWhite.jpg","congruent","n",542.121512,"f","f","left","(148, 362)",440,1,540.638642933501,-78.0114860301351," 1895.18",3,4,1,1
"64",100,"right","SHINEd_white sesame.jpg","incongruent","n",777.304089,"f","f","left","(862, 362)",371,1,775.918835491439,157.268706527803," 1085.72",78,4,1,1
"64",101,"left","SHINEd_GasStation.jpg","incongruent","m",523.945173,"j","j","right","(148, 362)",168,1,522.657535049378,-95.9925939142586,"  880.56",118,4,1,1
"64",102,"left","SHINEd_Celery.jpg","congruent","n",681.347104,"f","f","left","(148, 362)",272,1,680.157081607316,61.5069526436796," 1510.99",25,4,1,1
"64",103,"right","SHINEd_pine-cone-.jpg","incongruent","n",500.962687,"f","f","left","(862, 362)",399,1,499.870280165254,-118.779848798382," 1091.33",368,3,1,1
"64",104,"left","SHINEd_Pepper_Green.jpg","congruent","n",481.259779,"f","f","left","(148, 362)",372,1,480.264987723193,-138.385141240444," 1375.03",91,4,1,1
"64",105,"right","SHINEd_KiddiePool.jpg","congruent","m",742.708314,"j","j","right","(862, 362)",87,1,741.811138281131,123.161009317494," 3798.87",75,2,1,NA
"64",106,"left","SHINEd_Fridge.jpg","incongruent","m",514.715138,"j","j","right","(148, 362)",44,1,513.915577839069,-104.734551124567," 1054.53",19,4,1,1
"64",107,"left","SHINEd_gazelle.jpg","congruent","n",510.745866,"f","f","left","(148, 362)",268,1,510.043921397007,-108.606207566629," 1382.12",234,2,1,NA
"64",108,"left","SHINEd_LifeJacket_BlueYellow.jpg","incongruent","m",644.49448,"j","j","right","(148, 362)",16,1,643.890150954946,25.2400219913093," 1494.62",251,2,0,0
"64",109,"right","SHINEd_KitchenCloth.jpg","congruent","m",687.23193,"j","j","right","(862, 362)",143,1,686.725216512884,68.0750875492477," 2320.33",450,2,0,0
"64",110,"left","SHINEd_Bottle_Bleach.jpg","incongruent","m",619.757032,"j","j","right","(148, 362)",212,1,619.347934070822,0.697805107185893," 1979.71",217,4,1,1
"64",111,"left","SHINEd_Squash_Butternut.jpg","congruent","n",455.738402,"j","f","left","(148, 362)",444,0,455.426919628761,-163.223209334876,"  827.98",336,3,0,0
"64",112,"right","SHINEd_Cauliflower.jpg","incongruent","n",NA,"miss","f","left","(862, 362)",291,0,NA,NA," 1163.77",385,4,1,1
"64",113,"right","SHINEd_firetruck.jpg","congruent","m",505.152465,"j","j","right","(862, 362)",179,1,505.036213744637,-113.613915218999," 2077.89",386,2,1,NA
"64",114,"right","SHINEd_Tractor_Orange.jpg","congruent","m",524.316768,"j","j","right","(862, 362)",175,1,524.298132302575,-94.3519966610609," 1144.19",274,2,0,0
"64",115,"left","SHINEd_Cassette_Audio.jpg","incongruent","m",625.059979,"j","j","right","(148, 362)",148,1,625.138958860514,6.48882989687731," 1008.57",49,3,1,1
"64",116,"left","SHINEd_Cougar.jpg","congruent","n",460.671608,"f","f","left","(148, 362)",276,1,460.848203418452,-157.801925545184," 1158.04",444,3,1,1
"64",117,"left","SHINEd_Glasses_Reading.jpg","incongruent","m",722.0651,"j","j","right","(148, 362)",200,1,722.33931097639,103.689182012754," 1037.76",134,4,1,1
"64",118,"left","SHINEd_Pear_Yellow.jpg","congruent","n",813.573334,"f","f","left","(148, 362)",416,1,813.945160534329,195.295031570692,"  970.43",130,4,1,1
"64",119,"right","SHINEd_tamarinds.jpg","incongruent","n",752.845174,"f","f","left","(862, 362)",451,1,753.314616092267,134.66448712863," 2317.52",250,2,0,0
"64",120,"right","SHINEd_Cable_AudioSplitter.jpg","congruent","m",556.354754,"j","j","right","(862, 362)",91,1,556.921811650205,-61.7283173134313,"  957.48",53,4,1,1
"64",121,"left","SHINEd_Shampoo.jpg","incongruent","m",657.018962,"j","j","right","(148, 362)",120,1,657.683635208143,39.033506244507,"  903.67",429,4,1,1
"64",122,"left","SHINEd_chick hatch.jpg","congruent","n",597.423476,"f","f","left","(148, 362)",384,1,598.185764766082,-20.4643641975547," 1118.81",296,4,1,1
"64",123,"left","SHINEd_Boots_KneeHigh.jpg","incongruent","m",515.083852,"j","j","right","(148, 362)",152,1,515.94375632402,-102.706372639616,"  936.73",115,4,1,1
"64",124,"left","SHINEd_Key_Car.jpg","incongruent","m",NA,"miss","j","right","(148, 362)",176,0,NA,NA," 1072.19",52,4,1,1
"64",125,"right","SHINEd_Dress_Blue.jpg","congruent","m",628.0853,"j","j","right","(862, 362)",3,1,629.140435439896,10.4903064762601," 1044.81",204,4,1,1
"64",126,"left","SHINEd_seatAirplane.jpg","incongruent","m",616.306861,"j","j","right","(148, 362)",172,1,617.459611997835,-1.1905169658016," 1518.27",302,3,1,1
"64",127,"right","SHINEd_DryRack_Dishes.jpg","congruent","m",509.004804,"j","j","right","(862, 362)",135,1,510.255170555773,-108.394958407863," 1310.19",12,3,1,1
"64",128,"right","SHINEd_Nuts_Peanuts.jpg","incongruent","n",513.641654,"f","f","left","(862, 362)",235,1,514.989636113711,-103.660492849925,"  999.65",26,4,1,1
"64",129,"left","SHINEd_fig.jpg","congruent","n",512.194165,"f","f","left","(148, 362)",412,1,513.63976267165,-105.010366291987," 1953.73",351,3,1,1
"64",130,"left","SHINEd_Exercise_Bike.jpg","incongruent","m",621.447487,"j","j","right","(148, 362)",24,1,622.990700229588,4.34057126595152," 2719.90",89,2,0,0
"64",131,"left","SHINEd_Lettuce_GreenLeaf.jpg","congruent","n",768.458074,"f","f","left","(148, 362)",248,1,770.098902787526,151.44877382389," 1281.46",305,2,1,NA
"64",132,"right","SHINEd_Stapler_Regular.jpg","congruent","m",748.418154,"j","j","right","(862, 362)",43,1,750.156598345464,131.506469381828," 1718.26",125,3,1,1
"64",133,"left","SHINEd_Bag_Camera.jpg","incongruent","m",777.274455,"j","j","right","(148, 362)",216,1,779.110514903403,160.460385939766," 1749.45",191,4,1,1
"64",134,"right","SHINEd_Bandage_Adhesive.jpg","congruent","m",524.325628,"j","j","right","(862, 362)",107,1,526.259303461341,-92.3908255022953," 1055.23",166,4,1,1
"64",135,"left","SHINEd_CompassCardinal.jpg","incongruent","m",498.23647,"j","j","right","(148, 362)",40,1,500.267761019279,-118.382367944357," 1485.01",421,3,1,1
"64",136,"right","SHINEd_Swan.jpg","incongruent","n",501.162638,"f","f","left","(862, 362)",443,1,503.291544577218,-115.358584386419," 1612.80",121,2,1,NA
"64",137,"right","SHINEd_Cage_Bird.jpg","congruent","m",584.879644,"j","j","right","(862, 362)",123,1,587.106166135156,-31.5439628284806," 1193.60",23,4,1,1
"64",138,"left","SHINEd_bee.jpg","congruent","n",636.795038,"f","f","left","(148, 362)",380,1,639.119175693094,20.4690467294577," 1250.57",132,3,1,1
"64",139,"left","SHINEd_HedgeShears.jpg","incongruent","m",545.258617,"j","j","right","(148, 362)",28,1,547.680370251032,-70.969758712604," 1270.73",407,2,0,0
"64",140,"left","SHINEd_Buffalo.jpg","congruent","n",622.244733,"f","f","left","(148, 362)",432,1,624.764101808971,6.11397284533428," 1424.26",100,3,1,1
"64",141,"right","SHINEd_elbow.jpg","incongruent","n",NA,"miss","f","left","(862, 362)",263,0,NA,NA," 1028.83",138,4,1,1
"64",142,"left","SHINEd_Cow.jpg","congruent","n",565.344154,"f","f","left","(148, 362)",320,1,568.058753924847,-50.5913750387892," 1584.36",357,2,1,NA
"64",143,"right","SHINEd_Peach.jpg","incongruent","n",586.423144,"f","f","left","(862, 362)",323,1,589.235359482785,-29.4147694808509," 1211.53",401,3,1,1
"64",144,"right","SHINEd_Bed_Hospital.jpg","congruent","m",799.729072,"j","j","right","(862, 362)",207,1,802.638903040724,183.988774077087," 1221.21",435,4,1,1
"64",145,"right","SHINEd_goldfish.jpg","incongruent","n",892.770197,"f","f","left","(862, 362)",275,1,895.777643598662,277.127514635026,"  862.07",303,4,1,1
"64",146,"right","SHINEd_Crab.jpg","incongruent","n",674.229204,"f","f","left","(862, 362)",259,1,677.3342661566,58.6841371929639," 1038.25",154,3,1,1
"64",147,"right","SHINEd_CapGraduation.jpg","congruent","m",604.880375,"j","j","right","(862, 362)",187,1,608.083052714539,-10.5670762490978," 1194.03",372,4,1,1
"64",148,"right","SHINEd_mapleleaf.jpg","incongruent","n",754.687272,"f","f","left","(862, 362)",335,1,757.987565272477,139.337436308841," 1046.35",247,4,1,1
"64",149,"left","SHINEd_papaya.jpg","congruent","n",486.732901,"f","f","left","(148, 362)",292,1,490.130809830415,-128.519319133221," 1254.89",218,2,1,NA
"64",150,"left","SHINEd_Scorpion.jpg","congruent","n",515.544373,"f","f","left","(148, 362)",396,1,519.039897388353,-99.610231575283,"  949.91",227,4,1,1
"64",151,"left","SHINEd_tapir copy.jpg","congruent","n",577.132413,"f","f","left","(148, 362)",408,1,580.725552946292,-37.9245760173446," 1337.15",374,3,0,0
"64",152,"right","SHINEd_lime.jpg","incongruent","n",532.311439,"f","f","left","(862, 362)",439,1,536.00219450423,-82.6479344594064," 2039.05",202,3,0,0
"64",153,"left","SHINEd_Lighter_Yellow.jpg","incongruent","m",567.125036,"j","j","right","(148, 362)",104,1,570.913407062168,-47.7367219014681,"  678.12",402,4,1,1
"64",154,"right","SHINEd_ashtray.jpg","congruent","m",628.858814,"j","j","right","(862, 362)",227,1,632.744800620107,14.0946716564702," 1143.73",236,4,1,1
"64",155,"left","SHINEd_Kangaroo.jpg","congruent","n",512.482482,"f","f","left","(148, 362)",312,1,516.466084178045,-102.184044785592," 5072.68",144,2,0,0
"64",156,"right","SHINEd_Oars.jpg","congruent","m",572.867118,"j","j","right","(862, 362)",19,1,576.948335735983,-41.7017932276533," 1478.85",21,2,0,0
"64",157,"left","SHINEd_Hat_Explorer.jpg","incongruent","m",680.564305,"j","j","right","(148, 362)",188,1,684.743138293921,66.093009330285," 1004.01",448,3,1,1
"64",158,"left","SHINEd_CinderBlock.jpg","incongruent","m",526.233136,"j","j","right","(148, 362)",108,1,530.50958485186,-88.1405441117767," 1088.86",45,4,1,1
"64",159,"right","SHINEd_birdie.jpg","congruent","m",474.020636,"j","j","right","(862, 362)",131,1,478.394700409798,-140.255428553838," 3254.93",33,3,1,1
"64",160,"right","SHINEd_Car_Sedan.jpg","congruent","m",446.674194,"j","j","right","(862, 362)",183,1,451.145873967736,-167.5042549959," 1103.74",131,3,0,0
"64",161,"left","SHINEd_Fan_Ceiling.jpg","incongruent","m",578.042773,"j","j","right","(148, 362)",48,1,582.612068525675,-36.0380604379618," 2082.52",35,2,1,NA
"64",162,"left","SHINEd_Camel_Bactrian.jpg","congruent","n",533.756642,"f","f","left","(148, 362)",344,1,538.423553083613,-80.2265758800235," 1110.36",94,4,1,1
"64",163,"left","SHINEd_Golf_Club.jpg","incongruent","m",506.889103,"j","j","right","(148, 362)",132,1,511.653629641551,-106.996499322085," 1068.91",394,3,1,1
"64",164,"left","SHINEd_Pepper_Chili.jpg","congruent","n",616.551423,"f","f","left","(148, 362)",240,1,621.413565199489,2.76343623585298," 1012.02",222,3,1,1
"64",165,"right","SHINEd_Coral.jpg","incongruent","n",589.57507,"f","f","left","(862, 362)",455,1,594.534827757428,-24.1153012062088,"  837.52",417,4,1,1
"64",166,"left","SHINEd_FireExtinguisher.jpg","incongruent","m",515.8082,"j","j","right","(148, 362)",112,1,520.865573315366,-97.7845556482704," 2232.95",4,3,1,1
"64",167,"right","SHINEd_Organ.jpg","congruent","m",606.719556,"j","j","right","(862, 362)",7,1,611.874544873304,-6.77558409033217," 2717.78",392,1,0,0
"64",168,"left","SHINEd_Garbage_GreenBin.jpg","incongruent","m",627.383495,"j","j","right","(148, 362)",144,1,632.636099431242,13.9859704676061," 2326.56",72,3,1,1
"64",169,"right","SHINEd_Harp.jpg","congruent","m",496.423524,"j","j","right","(862, 362)",11,1,501.773743989181,-116.876384974456," 1117.63",42,4,1,1
"64",170,"right","SHINEd_Stroller.jpg","congruent","m",556.624467,"j","j","right","(862, 362)",55,1,562.072302547119,-56.5778264165174," 1176.79",393,3,1,1
"64",171,"left","SHINEd_Cucumber.jpg","congruent","n",515.334143,"f","f","left","(148, 362)",364,1,520.879594105057,-97.770534858579," 1368.65",262,2,0,0
"64",172,"left","SHINEd_BookShelf.jpg","incongruent","m",604.032807,"j","j","right","(148, 362)",204,1,609.675873662996,-8.97425530064074," 1095.65",244,3,1,1
"64",173,"left","SHINEd_Hand.jpg","congruent","n",593.605129,"f","f","left","(148, 362)",284,1,599.345811220934,-19.3043177427025," 1120.08",369,4,1,1
"64",174,"right","SHINEd_zebra.jpg","incongruent","n",451.668336,"f","f","left","(862, 362)",447,1,457.506633778872,-161.143495184764," 2702.21",419,1,0,0
"64",175,"left","SHINEd_sloth.jpg","congruent","n",737.880628,"f","f","left","(148, 362)",304,1,743.81654133681,125.166412373174," 2125.73",266,2,0,0
"64",176,"right","SHINEd_Cup_Bathroom.jpg","congruent","m",483.992331,"j","j","right","(862, 362)",51,1,490.025859894749,-128.624269068888," 1087.52",66,4,1,1
"64",177,"right","SHINEd_Puffin.jpg","incongruent","n",577.999874,"f","f","left","(862, 362)",231,1,584.131018452687,-34.5191105109494," 1775.62",174,3,0,0
"64",178,"left","SHINEd_CoffeeBeans.jpg","congruent","n",653.495433,"f","f","left","(148, 362)",332,1,659.724193010625,41.0740640469889," 1112.89",157,3,1,1
"64",179,"right","SHINEd_clementine.jpg","incongruent","n",459.549606,"f","f","left","(862, 362)",359,1,465.875981568563,-152.774147395073,"  968.23",139,4,1,1
"64",180,"right","SHINEd_Notepad.jpg","congruent","m",478.859422,"j","j","right","(862, 362)",71,1,485.283413126502,-133.366715837135," 1041.06",378,3,1,1
"64",181,"right","SHINEd_Ship_Model.jpg","congruent","m",933.045688,"j","j","right","(862, 362)",83,1,939.56729468444,320.917165720804," 2399.09",261,3,1,1
"64",182,"right","SHINEd_organutan.jpg","incongruent","n",496.871887,"f","f","left","(862, 362)",343,1,503.491109242378,-115.159019721258," 1458.34",316,2,1,NA
"64",183,"right","SHINEd_Box_Staples.jpg","congruent","m",548.889198,"j","j","right","(862, 362)",67,1,555.606035800317,-63.0440931633198," 1078.75",304,4,1,1
"64",184,"left","SHINEd_Blackboard.jpg","incongruent","m",760.682795,"j","j","right","(148, 362)",72,1,767.497248358255,148.847119394619," 1144.64",397,4,1,1
"64",185,"left","SHINEd_ant.jpg","congruent","n",493.989501,"f","f","left","(148, 362)",328,1,500.901569916193,-117.748559047443," 2319.16",143,1,0,0
"64",186,"left","SHINEd_Box_Package.jpg","incongruent","m",577.096824,"j","j","right","(148, 362)",220,1,584.106508474131,-34.5436204895049,"  850.31",254,4,1,1
"64",187,"right","SHINEd_Dresser.jpg","congruent","m",627.918479,"j","j","right","(862, 362)",203,1,635.02577903207,16.3756500684334,"  808.19",128,4,1,1
"64",188,"left","SHINEd_Cologne.jpg","incongruent","m",631.815234,"j","j","right","(148, 362)",116,1,639.020149590008,20.3700206263717,"  992.16",245,4,1,1
"64",189,"right","SHINEd_tree.jpg","incongruent","n",492.468623,"f","f","left","(862, 362)",375,1,499.771154147946,-118.87897481569," 1892.24",327,3,1,1
"64",190,"right","SHINEd_paddle ball.jpg","congruent","m",646.533299,"j","j","right","(862, 362)",27,1,653.933445705885,35.2833167422483," 1327.71",117,3,0,0
"64",191,"right","SHINEd_PaperCutter.jpg","congruent","m",562.939731,"j","j","right","(862, 362)",31,1,570.437493263823,-48.2126356998134," 1247.13",267,4,1,1
"64",192,"left","SHINEd_ornament.jpg","incongruent","m",600.154407,"j","j","right","(148, 362)",224,1,607.749784821761,-10.9003441418752,"  935.12",116,4,1,1
"64",193,"left","SHINEd_Lock_Combination.jpg","incongruent","m",467.650252,"j","j","right","(148, 362)",64,1,475.343245379699,-143.306883583937," 1505.48",48,3,1,1
"64",194,"left","SHINEd_beetle.jpg","congruent","n",513.477153,"f","f","left","(148, 362)",356,1,521.267761937638,-97.3823670259986," 1493.86",409,2,1,NA
"64",195,"left","SHINEd_CanOpener.jpg","incongruent","m",581.152219,"j","j","right","(148, 362)",160,1,589.040443495576,-29.6096854680604," 1773.56",445,3,1,1
"64",196,"left","SHINEd_SpiderWeb.jpg","congruent","n",NA,"miss","f","left","(148, 362)",348,0,NA,NA,"  929.11",80,4,1,1
"64",197,"right","SHINEd_Bowtie.jpg","congruent","m",695.769112,"j","j","right","(862, 362)",191,1,703.852567611453,85.2024386478161," 1093.24",171,3,1,1
"64",198,"right","SHINEd_WateringCan_PlasticDarkGreen.jpg","congruent","m",692.654327,"j","j","right","(862, 362)",215,1,700.835398169391,82.1852692057544," 1548.44",50,3,1,1
"64",199,"right","SHINEd_bear.jpg","incongruent","n",673.717249,"f","f","left","(862, 362)",271,1,681.995935727329,63.3458067636928," 1142.46",329,3,1,1
"64",200,"right","SHINEd_Light_Siren.jpg","congruent","m",790.413158,"j","j","right","(862, 362)",95,1,798.789460285267,180.139331321631," 1150.73",67,4,1,1
"64",201,"right","SHINEd_Candleholder_LampShaped.jpg","congruent","m",506.726654,"j","j","right","(862, 362)",111,1,515.200571843206,-103.449557120431," 1155.62",207,4,1,1
"64",202,"right","SHINEd_beluga.jpg","incongruent","n",638.715086,"f","f","left","(862, 362)",431,1,647.286619401144,28.6364904375076," 1023.39",82,4,1,1
"64",203,"right","SHINEd_Crayon_Green.jpg","congruent","m",593.594454,"j","j","right","(862, 362)",63,1,602.263602959082,-16.3865260045541,"  702.57",355,4,1,1
"64",204,"right","SHINEd_Microwave.jpg","congruent","m",718.466901,"j","j","right","(862, 362)",155,1,727.233665517021,108.583536553384," 2423.00",298,3,1,1
"64",205,"right","SHINEd_pistachios-.jpg","incongruent","n",617.502173,"f","f","left","(862, 362)",411,1,626.366553074959,7.71642411132239," 3989.87",238,2,1,NA
"64",206,"left","SHINEd_Hammer.jpg","incongruent","m",916.542757,"j","j","right","(148, 362)",36,1,925.504752632897,306.854623669261," 1217.21",382,3,1,1
"64",207,"left","SHINEd_Sheep.jpg","congruent","n",473.32389,"f","f","left","(148, 362)",300,1,482.383501190835,-136.266627772801," 1080.90",299,2,1,NA
"64",208,"left","SHINEd_DoubleBass.jpg","incongruent","m",526.148757,"j","j","right","(148, 362)",8,1,535.305983748774,-83.3441452148627,"  796.18",418,4,1,1
"64",209,"left","SHINEd_Ball_Football.jpg","incongruent","m",682.178962,"j","j","right","(148, 362)",128,1,691.433804306712,72.7836753430755," 1038.84",44,3,1,1
"64",210,"right","SHINEd_LetterMail.jpg","congruent","m",661.156313,"j","j","right","(862, 362)",75,1,670.50877086465,51.8586419010138," 5661.87",190,2,1,NA
"64",211,"left","SHINEd_eggs.jpg","congruent","n",672.760213,"f","f","left","(148, 362)",296,1,682.210286422589,63.5601574589521," 2319.12",358,3,1,1
"64",212,"right","SHINEd_almond.jpg","incongruent","n",525.751959,"f","f","left","(862, 362)",311,1,535.299647980527,-83.3504809831096," 1339.89",424,2,1,NA
"64",213,"right","SHINEd_Seal_animal.jpg","incongruent","n",553.912762,"f","f","left","(862, 362)",379,1,563.558066538465,-55.0920624251713," 1479.26",319,4,1,1
"64",214,"left","SHINEd_Leaf_Green.jpg","congruent","n",534.849459,"f","f","left","(148, 362)",448,1,544.592379096403,-74.0577498672331," 1047.72",344,3,0,0
"64",215,"right","SHINEd_Hippopotamus.jpg","incongruent","n",554.453549,"f","f","left","(862, 362)",367,1,564.294084654342,-54.3560443092948," 4187.36",438,2,1,NA
"64",216,"left","SHINEd_Button.jpg","incongruent","m",645.398817,"j","j","right","(148, 362)",4,1,655.33696821228,36.6868392486435," 1540.71",87,2,0,0
"64",217,"left","SHINEd_bullrush.jpg","congruent","n",706.255177,"f","f","left","(148, 362)",324,1,716.290943770218,97.6408148065818," 1127.64",188,3,1,1
"64",218,"right","SHINEd_Panda.jpg","incongruent","n",687.607244,"f","f","left","(862, 362)",251,1,697.740626328156,79.0904973645201," 1327.19",237,3,1,1
"64",219,"right","SHINEd_Caribou.jpg","incongruent","n",653.028478,"f","f","left","(862, 362)",435,1,663.259475886095,44.6093469224583," 1238.98",127,4,1,1
"64",220,"right","SHINEd_SpongeScrubbing.jpg","congruent","m",814.756867,"j","j","right","(862, 362)",139,1,825.085480444033,206.435351480397," 1053.68",58,4,1,1
"64",221,"right","SHINEd_Shoes_Pumps.jpg","congruent","m",739.588403,"j","j","right","(862, 362)",151,1,750.014632001971,131.364503038335," 1022.27",62,4,1,1
"64",222,"left","SHINEd_Ginger.jpg","congruent","n",561.630618,"f","f","left","(148, 362)",236,1,572.15446255991,-46.4956664037268," 1094.83",119,4,1,1
"64",223,"right","SHINEd_CDstack.jpg","congruent","m",939.200341,"j","j","right","(862, 362)",15,1,949.821801117848,331.171672154211,"  993.09",129,4,1,1
"64",224,"left","SHINEd_RibbonSpool.jpg","incongruent","m",784.407669,"j","j","right","(148, 362)",80,1,795.126744675786,176.47661571215,"  866.25",270,4,1,1
"64",225,"right","SHINEd_alfalfa.jpg","incongruent","n",620.035186,"j","f","left","(862, 362)",283,0,630.851877233724,12.201748270088," 1326.71",146,4,1,1
"64",226,"right","SHINEd_Bat_Baseball.jpg","congruent","m",743.587059,"j","j","right","(862, 362)",127,1,754.501365791663,135.851236828026," 1176.02",9,4,1,1
"64",227,"right","SHINEd_alligator.jpg","incongruent","n",NA,"miss","f","left","(862, 362)",355,0,NA,NA," 1348.15",216,4,1,1
"64",228,"left","SHINEd_Light_Traffic.jpg","incongruent","m",597.232089,"j","j","right","(148, 362)",180,1,608.341626907539,-10.3085020560972," 1271.30",406,3,1,1
