"participant","trial_index","screenposition","stimulus","trialtype","classifyenc","rt","response","responsecorrect","responsecorrect_side","screenlocation","stimnum","acc","rtResidual","rtResidualC","rt_rec","trialno_rec","ratingConfidence","acc_rec","memoryHits.hc"
"65",1,"left","SHINEd_Buffalo.jpg","incongruent","n",NA,"miss","j","right","(148, 362)",432,0,NA,NA," 2127.50",153,1,0,0
"65",2,"left","SHINEd_IroningBoard.jpg","congruent","m",638.499612,"f","f","left","(148, 362)",52,1,612.36108431702,-33.8743756517301," 1827.10",101,2,0,0
"65",3,"left","SHINEd_Pitcher.jpg","congruent","m",547.144758,"f","f","left","(148, 362)",56,1,521.237700180674,-124.997759788076," 1495.02",434,3,1,1
"65",4,"right","SHINEd_Crayon_Green.jpg","incongruent","m",893.166469,"j","f","left","(862, 362)",63,0,867.490881044323,221.255421075573," 2407.67",147,4,1,1
"65",5,"right","SHINEd_lime.jpg","congruent","n",672.508891,"j","j","right","(862, 362)",439,1,647.064772907971,0.829312939221222," 2174.55",165,4,1,1
"65",6,"left","SHINEd_Banana.jpg","incongruent","n",724.564843,"j","j","right","(148, 362)",376,1,699.35219477162,53.1167348028697," 1574.68",119,4,1,1
"65",7,"right","SHINEd_Potato.jpg","congruent","n",568.212744,"j","j","right","(862, 362)",423,1,543.231565635268,-103.003894333482," 1622.89",222,4,1,1
"65",8,"right","SHINEd_Candleholder_LampShaped.jpg","incongruent","m",683.252089,"f","f","left","(862, 362)",111,1,658.502380498916,12.2669205301664," 1163.73",436,4,1,1
"65",9,"right","SHINEd_Sand.jpg","congruent","n",NA,"miss","j","right","(862, 362)",279,0,NA,NA," 2087.93",313,4,1,1
"65",10,"left","SHINEd_chick hatch.jpg","incongruent","n",787.071601,"j","j","right","(148, 362)",384,1,762.784832226213,116.549372257463," 1620.27",187,4,1,1
"65",11,"left","SHINEd_CanOpener.jpg","congruent","m",607.321921,"f","f","left","(148, 362)",160,1,583.266622089862,-62.9688378788884,"  936.07",92,4,1,1
"65",12,"left","SHINEd_lorises.jpg","incongruent","n",611.093759,"j","j","right","(148, 362)",428,1,587.26992995351,-58.96553001524," 1326.63",27,4,1,1
"65",13,"left","SHINEd_GasStation.jpg","congruent","m",718.850812,"f","f","left","(148, 362)",168,1,695.258452817158,49.0229928484085," 1768.01",275,4,1,1
"65",14,"right","SHINEd_MannequinBust.jpg","incongruent","m",866.215206,"f","f","left","(862, 362)",103,1,842.854316680807,196.618856712057," 1817.16",160,4,1,1
"65",15,"right","SHINEd_dates_fresh.jpg","congruent","n",900.515042,"j","j","right","(862, 362)",319,1,877.385622544455,231.150162575705," 2087.46",70,4,1,1
"65",16,"left","SHINEd_ant.jpg","incongruent","n",744.860505,"j","j","right","(148, 362)",328,1,721.962555408104,75.7270954393536," 1693.47",25,4,1,1
"65",17,"left","SHINEd_EspressoMachine.jpg","congruent","m",579.278652,"f","f","left","(148, 362)",156,1,556.612172271752,-89.623287696998," 2463.20",87,4,1,1
"65",18,"left","SHINEd_papaya.jpg","incongruent","n",566.075636,"j","j","right","(148, 362)",292,1,543.6406261354,-102.59483383335," 2551.90",135,2,0,0
"65",19,"left","SHINEd_Hand.jpg","incongruent","n",538.236429,"j","j","right","(148, 362)",284,1,516.032888999049,-130.202570969701," 3410.37",44,4,1,1
"65",20,"left","SHINEd_alarm.jpg","congruent","m",565.945923,"f","f","left","(148, 362)",96,1,543.973852862697,-102.261607106053," 2101.60",40,4,1,1
"65",21,"left","SHINEd_Boar.jpg","incongruent","n",561.236926,"j","j","right","(148, 362)",264,1,539.496325726346,-106.739134242404," 1700.31",265,4,1,1
"65",22,"right","SHINEd_KiddiePool.jpg","incongruent","m",438.310502,"j","f","left","(862, 362)",87,0,416.801371589994,-229.434088378756," 4470.14",316,3,0,0
"65",23,"left","SHINEd_Outhouse.jpg","congruent","m",888.778907,"f","f","left","(148, 362)",164,1,867.501246453642,221.265786484892," 1480.27",425,4,1,1
"65",24,"right","SHINEd_Stroller.jpg","incongruent","m",604.386,"f","f","left","(862, 362)",55,1,583.339809317291,-62.8956506514592," 2446.30",118,3,1,1
"65",25,"right","SHINEd_penguin.jpg","congruent","n",695.980418,"f","j","right","(862, 362)",307,0,675.165697180939,28.9302372121892," 1982.04",52,4,1,1
"65",26,"right","SHINEd_Cable_AudioSplitter.jpg","incongruent","m",837.012413,"f","f","left","(862, 362)",91,1,816.429162044588,170.193702075838," 1032.98",277,4,1,1
"65",27,"right","SHINEd_pine-cone-.jpg","congruent","n",688.333053,"f","j","right","(862, 362)",399,0,667.981271908236,21.7458119394859,"  892.19",281,3,1,1
"65",28,"left","SHINEd_Bottle_Bleach.jpg","congruent","m",746.865142,"f","f","left","(148, 362)",212,1,726.744830771884,80.5093708031344," 1697.78",18,4,1,1
"65",29,"right","SHINEd_Bed_Hospital.jpg","incongruent","m",693.91433,"f","f","left","(862, 362)",207,1,674.025488635533,27.7900286667827," 1008.79",410,4,1,1
"65",30,"left","SHINEd_ScannerShoplifting.jpg","congruent","m",809.958174,"f","f","left","(148, 362)",100,1,790.300802499181,144.065342530431,"  872.20",239,4,1,1
"65",31,"left","SHINEd_anteater.jpg","incongruent","n",502.000059,"j","j","right","(148, 362)",368,1,482.57415736283,-163.66130260592," 3555.37",140,4,1,1
"65",32,"left","SHINEd_blueberries.jpg","incongruent","n",601.692068,"j","j","right","(148, 362)",232,1,582.497636226478,-63.7378237422721," 1146.16",354,3,1,1
"65",33,"right","SHINEd_alligator.jpg","congruent","n",572.601821,"j","j","right","(862, 362)",355,1,553.638859090126,-92.5966008786237," 1906.15",33,4,1,1
"65",34,"right","SHINEd_Cage_Bird.jpg","incongruent","m",728.450967,"f","f","left","(862, 362)",123,1,709.719474953775,63.4840149850247," 2328.05",261,1,0,0
"65",35,"left","SHINEd_Shampoo.jpg","congruent","m",715.766926,"f","f","left","(148, 362)",120,1,697.266903817423,51.0314438486732," 2118.73",238,4,1,1
"65",36,"left","SHINEd_Pepper_Chili.jpg","incongruent","n",575.776094,"j","j","right","(148, 362)",240,1,557.507541681071,-88.7279182876785,"  926.31",252,4,1,1
"65",37,"left","SHINEd_Bib.jpg","congruent","m",755.134354,"f","f","left","(148, 362)",136,1,737.09727154472,90.86181157597," 1367.45",395,3,1,1
"65",38,"right","SHINEd_MousepadAndMouse.jpg","incongruent","m",773.360428,"f","f","left","(862, 362)",99,1,755.554815408368,109.319355439618," 1966.71",65,4,1,1
"65",39,"left","SHINEd_Key_Car.jpg","congruent","m",713.821843,"f","f","left","(148, 362)",176,1,696.247700272017,50.0122403032667," 1453.04",198,3,0,0
"65",40,"right","SHINEd_Harp.jpg","incongruent","m",572.633124,"f","f","left","(862, 362)",11,1,555.290451135665,-90.9450088330849," 1200.62",121,4,1,1
"65",41,"left","SHINEd_FireExtinguisher.jpg","congruent","m",609.98328,"f","f","left","(148, 362)",112,1,592.872076999314,-53.3633829694365," 1839.25",241,4,1,1
"65",42,"left","SHINEd_Sheep.jpg","incongruent","n",580.807294,"j","j","right","(148, 362)",300,1,563.927560862962,-82.3078991057881," 3012.34",307,2,1,NA
"65",43,"right","SHINEd_almond.jpg","congruent","n",665.796727,"j","j","right","(862, 362)",311,1,649.14846372661,2.91300375786033," 1838.53",97,2,0,0
"65",44,"right","SHINEd_Toolbox_RedOpen.jpg","incongruent","m",748.89576,"f","f","left","(862, 362)",39,1,732.478966590259,86.2435066215087," 3143.69",17,2,0,0
"65",45,"left","SHINEd_vulture.jpg","incongruent","n",559.911133,"j","j","right","(148, 362)",436,1,543.725809453907,-102.509650514843," 1900.94",170,2,0,0
"65",46,"left","SHINEd_Clothespin_Red.jpg","congruent","m",819.0067,"f","f","left","(148, 362)",60,1,803.052846317555,156.817386348806," 1544.22",125,4,1,1
"65",47,"right","SHINEd_Box_Staples.jpg","incongruent","m",671.128201,"f","f","left","(862, 362)",67,1,655.405817181204,9.17035721245387," 1275.31",406,4,1,1
"65",48,"right","SHINEd_firetruck.jpg","incongruent","m",674.516262,"f","f","left","(862, 362)",179,1,659.025348044852,12.7898880761023," 1462.25",415,3,0,0
"65",49,"right","SHINEd_beluga.jpg","congruent","n",653.490639,"j","j","right","(862, 362)",431,1,638.231194908501,-8.00426506024934," 2173.41",86,4,1,1
"65",50,"right","SHINEd_CapGraduation.jpg","incongruent","m",529.161587,"f","f","left","(862, 362)",187,1,514.133612772149,-132.101847196601," 1973.81",193,4,1,1
"65",51,"left","SHINEd_Garbage_GreenBin.jpg","congruent","m",549.805043,"f","f","left","(148, 362)",144,1,535.008538635797,-111.226921332953," 3341.42",30,3,1,1
"65",52,"right","SHINEd_Cauliflower.jpg","congruent","n",720.932548,"j","j","right","(862, 362)",291,1,706.367513499446,60.1320535306959," 1529.90",280,4,1,1
"65",53,"right","SHINEd_Bowtie.jpg","incongruent","m",693.213265,"f","f","left","(862, 362)",191,1,678.879700363094,32.6442403943442," 1635.64",251,4,1,1
"65",54,"right","SHINEd_sanddollar.jpg","congruent","n",602.119453,"j","j","right","(862, 362)",295,1,588.017358226743,-58.2181017420073," 1131.96",404,2,0,0
"65",55,"left","SHINEd_Lobster.jpg","incongruent","n",565.815748,"j","j","right","(148, 362)",288,1,551.945123090391,-94.290336878359,"  913.05",28,4,1,1
"65",56,"left","SHINEd_mint.jpg","incongruent","n",570.776004,"j","j","right","(148, 362)",360,1,557.136848954039,-89.0986110147106," 1622.28",305,3,0,0
"65",57,"right","SHINEd_Hedgehog.jpg","congruent","n",525.763924,"j","j","right","(862, 362)",243,1,512.356238817688,-133.879221151062,"  960.06",408,4,1,1
"65",58,"right","SHINEd_MalletJudge.jpg","incongruent","m",826.322055,"f","f","left","(862, 362)",35,1,813.145839681336,166.910379712586," 1233.84",64,3,0,0
"65",59,"right","SHINEd_clementine.jpg","congruent","n",741.325709,"j","j","right","(862, 362)",359,1,728.380963544985,82.1455035762346," 2382.96",262,3,1,1
"65",60,"right","SHINEd_Basket_Plastic.jpg","incongruent","m",786.055144,"f","f","left","(862, 362)",211,1,773.341868408633,127.106408439883," 1390.32",366,3,0,0
"65",61,"right","SHINEd_Dresser.jpg","incongruent","m",957.740826,"f","f","left","(862, 362)",203,1,945.259020272281,299.023560303531," 2485.93",35,4,1,1
"65",62,"left","SHINEd_Cassette_Audio.jpg","congruent","m",888.340717,"f","f","left","(148, 362)",148,1,876.09038113593,229.85492116718," 1417.42",84,4,0,0
"65",63,"left","SHINEd_maggotts.jpg","incongruent","n",668.004162,"j","j","right","(148, 362)",392,1,655.985295999578,9.74983603082816," 2121.22",133,4,1,1
"65",64,"right","SHINEd_Seal_animal.jpg","congruent","n",879.455353,"j","j","right","(862, 362)",379,1,867.667956863227,221.432496894477," 1311.36",258,4,0,0
"65",65,"left","SHINEd_Squash_Butternut.jpg","incongruent","n",603.391899,"j","j","right","(148, 362)",444,1,591.835972726875,-54.399487241875," 1168.31",102,4,0,0
"65",66,"right","SHINEd_Shark_GreatWhite.jpg","congruent","n",630.579361,"j","j","right","(862, 362)",287,1,619.254904590523,-26.9805553782267," 2213.49",157,3,0,0
"65",67,"left","SHINEd_Cow.jpg","incongruent","n",875.275264,"f","j","right","(148, 362)",320,0,864.182277454172,217.946817485422," 1077.24",120,4,1,1
"65",68,"right","SHINEd_FloppyDisk.jpg","incongruent","m",693.436518,"f","f","left","(862, 362)",147,1,682.57500131782,36.3395413490702," 2404.91",226,3,0,0
"65",69,"right","SHINEd_edamame.jpg","congruent","n",561.166324,"j","j","right","(862, 362)",303,1,550.536277181469,-95.6991827872814," 1317.29",335,3,0,0
"65",70,"left","SHINEd_beetle.jpg","incongruent","n",596.40021,"j","j","right","(148, 362)",356,1,586.001633045117,-60.233826923633," 1646.46",175,2,1,NA
"65",71,"right","SHINEd_Hippopotamus.jpg","congruent","n",398.914209,"j","j","right","(862, 362)",367,1,388.747101908765,-257.488358059985," 1485.94",380,3,0,0
"65",72,"left","SHINEd_gazelle.jpg","incongruent","n",554.340002,"j","j","right","(148, 362)",268,1,544.404364772414,-101.831095196336,"  968.49",428,3,1,1
"65",73,"left","SHINEd_seatAirplane.jpg","congruent","m",782.121925,"f","f","left","(148, 362)",172,1,772.417757636062,126.182297667312," 2445.63",303,3,1,1
"65",74,"left","SHINEd_Kangaroo.jpg","incongruent","n",696.813146,"j","j","right","(148, 362)",312,1,687.340448499711,41.1049885309605," 3486.77",57,3,1,1
"65",75,"right","SHINEd_white sesame.jpg","congruent","n",732.157749,"j","j","right","(862, 362)",371,1,722.916521363359,76.6810613946089,"  965.63",382,3,0,0
"65",76,"left","SHINEd_Bag_Camera.jpg","congruent","m",632.291141,"f","f","left","(148, 362)",216,1,623.281383227007,-22.9540767417426," 4480.23",1,4,0,0
"65",77,"left","SHINEd_Plum.jpg","incongruent","n",732.134655,"j","j","right","(148, 362)",244,1,723.356367090656,77.1209071219057,"  717.26",451,3,0,0
"65",78,"left","SHINEd_HedgeShears.jpg","congruent","m",663.497991,"f","f","left","(148, 362)",28,1,654.951172954304,8.7157129855541," 1216.09",164,2,0,0
"65",79,"left","SHINEd_rhino.jpg","incongruent","n",618.11128,"j","j","right","(148, 362)",352,1,609.795931817952,-36.4395281507975," 5084.79",168,4,1,1
"65",80,"right","SHINEd_OnionRed.jpg","congruent","n",518.284054,"f","j","right","(862, 362)",383,0,510.200175681601,-136.035284287149," 2191.29",23,4,1,1
"65",81,"right","SHINEd_Tractor_Orange.jpg","incongruent","m",640.933035,"f","f","left","(862, 362)",175,1,633.080626545249,-13.1548334235007," 1964.83",138,2,0,0
"65",82,"right","SHINEd_organutan.jpg","congruent","n",629.479056,"j","j","right","(862, 362)",343,1,621.858117408898,-24.3773425598523," 2286.26",68,4,1,1
"65",83,"left","SHINEd_Pig.jpg","incongruent","n",552.162865,"j","j","right","(148, 362)",424,1,544.773396272546,-101.462063696204," 1905.34",73,4,1,1
"65",84,"left","SHINEd_Fan_Ceiling.jpg","congruent","m",739.459921,"f","f","left","(148, 362)",48,1,732.301922136194,86.0664621674445," 1012.24",244,4,1,1
"65",85,"right","SHINEd_Bat_Baseball.jpg","incongruent","m",559.487251,"f","f","left","(862, 362)",127,1,552.560721999843,-93.6747379689071," 2092.85",177,4,1,1
"65",86,"right","SHINEd_Seashell_RoseMurex.jpg","congruent","n",787.200288,"j","j","right","(862, 362)",327,1,780.505228863491,134.269768894741," 1477.55",317,4,1,1
"65",87,"left","SHINEd_Golf_Club.jpg","congruent","m",581.392501,"f","f","left","(148, 362)",132,1,574.92891172714,-71.3065482416103," 1061.83",297,2,0,0
"65",88,"right","SHINEd_Car_Sedan.jpg","incongruent","m",488.948163,"f","f","left","(862, 362)",183,1,482.716043590788,-163.519416377962," 1659.61",298,3,0,0
"65",89,"left","SHINEd_Exercise_Bike.jpg","congruent","m",500.435503,"f","f","left","(148, 362)",24,1,494.434853454437,-151.800606514314," 3870.85",320,4,1,1
"65",90,"left","SHINEd_Pepper_Green.jpg","incongruent","n",480.182407,"f","j","right","(148, 362)",372,0,474.413227318085,-171.822232650665," 2805.93",115,3,0,0
"65",91,"right","SHINEd_DryRack_Dishes.jpg","incongruent","m",788.731182,"f","f","left","(862, 362)",135,1,783.193472181733,136.958012212983," 2381.71",269,2,0,0
"65",92,"left","SHINEd_DrainPlug.jpg","congruent","m",590.619482,"f","f","left","(148, 362)",140,1,585.313242045382,-60.9222179233684," 1061.33",373,4,1,1
"65",93,"left","SHINEd_Scorpion.jpg","incongruent","n",522.889585,"j","j","right","(148, 362)",396,1,517.81481490903,-128.42064505972," 1212.78",443,3,0,0
"65",94,"left","SHINEd_ornament.jpg","congruent","m",607.284838,"f","f","left","(148, 362)",224,1,602.441537772678,-43.7939221960715," 2325.07",47,4,1,1
"65",95,"right","SHINEd_Bus_School.jpg","incongruent","m",538.010137,"f","f","left","(862, 362)",171,1,533.398306636327,-112.837153332423," 2166.73",190,4,1,1
"65",96,"right","SHINEd_Binoculars.jpg","incongruent","m",557.995077,"f","f","left","(862, 362)",199,1,553.614716499975,-92.6207434687747," 2183.02",172,4,1,1
"65",97,"right","SHINEd_Caribou.jpg","congruent","n",592.419769,"j","j","right","(862, 362)",435,1,588.270878363624,-57.9645816051264,"  885.29",179,2,0,0
"65",98,"left","SHINEd_alpaca_fo.jpg","incongruent","n",604.050717,"j","j","right","(148, 362)",400,1,600.133296227272,-46.102163741478," 1360.85",377,3,0,0
"65",99,"left","SHINEd_Oneholepunch.jpg","congruent","m",559.787952,"f","f","left","(148, 362)",76,1,556.10200109092,-90.1334588778295," 2439.15",77,4,1,1
"65",100,"right","SHINEd_ashtray.jpg","incongruent","m",803.124136,"f","f","left","(862, 362)",227,1,799.669654954569,153.434194985819," 2009.28",264,2,0,0
"65",101,"left","SHINEd_PassionFruit.jpg","incongruent","n",663.088516,"j","j","right","(148, 362)",452,1,659.865504818217,13.6300448494673," 1667.02",393,2,1,NA
"65",102,"right","SHINEd_elbow.jpg","congruent","n",483.274786,"j","j","right","(862, 362)",263,1,480.283244681866,-165.952215286884," 1345.36",453,2,0,0
"65",103,"right","SHINEd_Microwave.jpg","incongruent","m",646.743542,"f","f","left","(862, 362)",155,1,643.983470545514,-2.25198942323592," 2312.71",106,2,0,0
"65",104,"left","SHINEd_Ball_Football.jpg","congruent","m",497.240427,"f","f","left","(148, 362)",128,1,494.711825409162,-151.523634559588," 1581.38",139,2,0,0
"65",105,"left","SHINEd_Earrings_Dangling.jpg","congruent","m",780.137569,"f","f","left","(148, 362)",196,1,777.840437272811,131.604977304061,"  951.22",284,4,1,1
"65",106,"right","SHINEd_LightBulb_White.jpg","incongruent","m",543.437684,"f","f","left","(862, 362)",47,1,541.372022136459,-104.863437832291," 1710.35",400,4,1,1
"65",107,"right","SHINEd_goldfish.jpg","congruent","n",651.68217,"j","j","right","(862, 362)",275,1,649.847978000108,3.61251803135765," 1203.91",376,4,1,1
"65",108,"right","SHINEd_Oars.jpg","incongruent","m",710.939847,"f","f","left","(862, 362)",19,1,709.337124863756,63.101664895006,"  920.39",266,4,1,1
"65",109,"right","SHINEd_Fish_Swordfish.jpg","congruent","n",594.820526,"j","j","right","(862, 362)",331,1,593.449273727404,-52.7861862413456," 1296.95",114,4,0,0
"65",110,"right","SHINEd_PaperCutter.jpg","incongruent","m",622.070658,"f","f","left","(862, 362)",31,1,620.930875591053,-25.3045843776972," 3864.50",103,4,1,1
"65",111,"left","SHINEd_Guitar_Acoustic.jpg","congruent","m",483.156617,"f","f","left","(148, 362)",12,1,482.248304454701,-163.987155514049," 1468.65",389,3,0,0
"65",112,"left","SHINEd_eggs.jpg","incongruent","n",679.405934,"j","j","right","(148, 362)",296,1,678.72909131835,32.4936313495996," 1350.32",427,4,1,1
"65",113,"right","SHINEd_Swan.jpg","congruent","n",481.608148,"j","j","right","(862, 362)",443,1,481.162775181998,-165.072684786752," 1375.60",14,3,0,0
"65",114,"right","SHINEd_Iguana.jpg","congruent","n",732.839752,"j","j","right","(862, 362)",387,1,732.625849045646,86.3903890768964," 1990.10",202,4,1,1
"65",115,"left","SHINEd_Ginger.jpg","incongruent","n",752.936759,"j","j","right","(148, 362)",236,1,752.954325909295,106.718865940545," 2605.35",260,3,0,0
"65",116,"right","SHINEd_Seahorse.jpg","congruent","n",588.37292,"j","j","right","(862, 362)",347,1,588.621956772943,-57.6135031958068," 2166.22",199,4,1,1
"65",117,"right","SHINEd_Cup_Bathroom.jpg","incongruent","m",615.38213,"f","f","left","(862, 362)",51,1,615.862636636592,-30.3728233321585," 1485.26",386,2,0,0
"65",118,"right","SHINEd_Ferret.jpg","congruent","n",644.816689,"j","j","right","(862, 362)",239,1,645.52866550024,-0.70679446851004," 1742.24",213,4,1,1
"65",119,"left","SHINEd_Camel_Bactrian.jpg","incongruent","n",694.387089,"f","j","right","(148, 362)",344,0,695.330535363888,49.0950753951383,"  949.40",345,4,1,1
"65",120,"right","SHINEd_zebra.jpg","congruent","n",610.784389,"j","j","right","(862, 362)",447,1,611.959305227537,-34.2761547412132," 3005.89",16,3,1,1
"65",121,"right","SHINEd_Fence_Wooden.jpg","incongruent","m",782.0073,"f","f","left","(862, 362)",163,1,783.413686091185,137.178226122435," 1023.78",440,3,0,0
"65",122,"left","SHINEd_Tie.jpg","congruent","m",571.116174,"f","f","left","(148, 362)",192,1,572.754029954834,-73.4814300139165,"  812.90",357,4,1,1
"65",123,"right","SHINEd_Playard.jpg","incongruent","m",501.285626,"f","f","left","(862, 362)",59,1,503.154951818482,-143.080508150268," 2845.12",402,3,0,0
"65",124,"left","SHINEd_tapir copy.jpg","incongruent","n",529.192315,"j","j","right","(148, 362)",408,1,531.29311068213,-114.94234928662," 1199.44",355,4,1,1
"65",125,"left","SHINEd_Button.jpg","congruent","m",612.876079,"f","f","left","(148, 362)",4,1,615.208344545779,-31.0271154229713," 2101.54",131,4,0,0
"65",126,"left","SHINEd_Lettuce_GreenLeaf.jpg","incongruent","n",608.639165,"j","j","right","(148, 362)",248,1,611.202900409427,-35.0325595593228,"  997.77",418,4,0,0
"65",127,"right","SHINEd_Eggplant.jpg","congruent","n",492.550103,"j","j","right","(862, 362)",267,1,495.345308273075,-150.890151695674," 1924.68",7,4,1,1
"65",128,"left","SHINEd_raspberry.jpg","incongruent","n",551.732647,"j","j","right","(148, 362)",456,1,554.759322136724,-91.4761378320261," 1659.59",411,2,0,0
"65",129,"left","SHINEd_Dart.jpg","congruent","m",770.167381,"f","f","left","(148, 362)",20,1,773.425526000372,127.190066031622," 1565.94",392,3,1,1
"65",130,"right","SHINEd_CDstack.jpg","incongruent","m",671.233959,"f","f","left","(862, 362)",15,1,674.723573864021,28.4881138952707," 1432.29",349,3,1,1
"65",131,"right","SHINEd_Crab.jpg","congruent","n",490.036766,"j","j","right","(862, 362)",259,1,493.757850727669,-152.477609241081,"  982.67",360,4,1,1
"65",132,"right","SHINEd_alfalfa.jpg","congruent","n",468.830263,"j","j","right","(862, 362)",283,1,472.782817591317,-173.452642377432," 1333.50",257,3,0,0
"65",133,"left","SHINEd_housefly.jpg","incongruent","n",528.649191,"j","j","right","(148, 362)",420,1,532.833215454966,-113.402244513784," 2645.57",388,3,0,0
"65",134,"left","SHINEd_CompassCardinal.jpg","congruent","m",572.218546,"f","f","left","(148, 362)",40,1,576.634040318614,-69.6014196501358," 1820.74",20,3,0,0
"65",135,"right","SHINEd_KitchenCloth.jpg","incongruent","m",784.322753,"f","f","left","(862, 362)",143,1,788.969717182263,142.734257213513," 2240.74",116,4,1,1
"65",136,"right","SHINEd_Staircase_Curving.jpg","incongruent","m",619.37398,"f","f","left","(862, 362)",115,1,624.252414045911,-21.983045922839,"  746.68",414,3,0,0
"65",137,"right","SHINEd_Chimpanzee.jpg","congruent","n",639.806519,"j","j","right","(862, 362)",255,1,644.916422909559,-1.31903705919054,"  978.88",184,4,1,1
"65",138,"right","SHINEd_tamarinds.jpg","congruent","n",693.046475,"j","j","right","(862, 362)",451,1,698.387848773208,52.1523888044579," 2742.12",141,4,1,1
"65",139,"left","SHINEd_blackberry.jpg","incongruent","n",881.411017,"j","j","right","(148, 362)",280,1,886.983860636856,240.748400668106," 1352.40",437,3,0,0
"65",140,"left","SHINEd_Light_Traffic.jpg","congruent","m",709.883619,"f","f","left","(148, 362)",180,1,715.687932500505,69.4524725317546," 2255.80",110,4,1,1
"65",141,"right","SHINEd_birdie.jpg","incongruent","m",882.199769,"f","f","left","(862, 362)",131,1,888.235552364153,242.000092395403," 1573.42",166,4,1,1
"65",142,"right","SHINEd_Puffin.jpg","congruent","n",708.216359,"j","j","right","(862, 362)",231,1,714.483612227801,68.2481522590515," 2990.69",8,2,0,0
"65",143,"right","SHINEd_Ship_Model.jpg","incongruent","m",639.716326,"f","f","left","(862, 362)",83,1,646.21504909145,-0.0204108773001699," 1221.07",214,4,1,1
"65",144,"right","SHINEd_tree.jpg","congruent","n",667.809966,"j","j","right","(862, 362)",375,1,674.540158955098,28.3046989863483," 2351.08",81,4,1,1
"65",145,"left","SHINEd_SpiderWeb.jpg","incongruent","n",719.457533,"j","j","right","(148, 362)",348,1,726.419195818747,80.1837358499966," 1597.46",182,4,1,1
"65",146,"left","SHINEd_Cucumber.jpg","incongruent","n",458.106623,"j","j","right","(148, 362)",364,1,465.299755682395,-180.935704286355,"  919.72",324,4,1,1
"65",147,"right","SHINEd_Panda.jpg","congruent","n",463.03239,"j","j","right","(862, 362)",251,1,470.456992546043,-175.778467422707," 1345.49",210,4,1,1
"65",148,"right","SHINEd_Barbecue_Gas.jpg","incongruent","m",769.285468,"f","f","left","(862, 362)",159,1,776.941540409692,130.706080440942," 1576.57",229,3,0,0
"65",149,"left","SHINEd_Boombox.jpg","congruent","m",692.415944,"f","f","left","(148, 362)",92,1,700.30348627334,54.0680263045902," 3381.45",85,4,0,0
"65",150,"right","SHINEd_Olives.jpg","congruent","n",688.183651,"j","j","right","(862, 362)",419,1,696.302663136989,50.0672031682387," 1424.72",270,2,0,0
"65",151,"right","SHINEd_feather.jpg","congruent","n",757.17204,"j","j","right","(862, 362)",415,1,765.522522000637,119.287062031887," 1271.96",150,4,1,1
"65",152,"left","SHINEd_Pear_Yellow.jpg","incongruent","n",737.090475,"j","j","right","(148, 362)",416,1,745.672426864285,99.4369668955354,"  840.59",211,4,1,1
"65",153,"right","SHINEd_paddle ball.jpg","incongruent","m",NA,"miss","f","left","(862, 362)",27,0,NA,NA," 1903.80",15,4,1,1
"65",154,"right","SHINEd_Flower_Daisy.jpg","congruent","n",584.79699,"j","j","right","(862, 362)",351,1,593.841881591582,-52.3935783771677," 1671.44",195,4,1,1
"65",155,"right","SHINEd_turkey.jpg","congruent","n",620.202762,"j","j","right","(862, 362)",391,1,629.479123455231,-16.7563365135194," 2568.37",34,3,0,0
"65",156,"right","SHINEd_mapleleaf.jpg","congruent","n",399.214335,"j","j","right","(862, 362)",335,1,408.722166318879,-237.513293649871," 1686.98",3,2,1,NA
"65",157,"right","SHINEd_Box_GiftTopView.jpg","incongruent","m",707.109364,"f","f","left","(862, 362)",219,1,716.848665182527,70.6132052137774," 2459.65",90,4,1,1
"65",158,"right","SHINEd_Dress_Blue.jpg","incongruent","m",758.613677,"f","f","left","(862, 362)",3,1,768.584448046176,122.348988077426," 1008.26",326,4,1,1
"65",159,"left","SHINEd_Glasses_Reading.jpg","congruent","m",850.298775,"f","f","left","(148, 362)",200,1,860.501015909824,214.265555941074," 1367.20",397,4,1,1
"65",160,"left","SHINEd_Blackboard.jpg","congruent","m",845.199729,"f","f","left","(148, 362)",72,1,855.633439773473,209.397979804723," 1662.26",361,3,0,0
"65",161,"left","SHINEd_Lion.jpg","incongruent","n",783.819617,"j","j","right","(148, 362)",316,1,794.484797637121,148.249337668371," 2285.23",207,3,1,1
"65",162,"right","SHINEd_bat.jpg","congruent","n",691.511189,"j","j","right","(862, 362)",403,1,702.407839500769,56.1723795320193," 3549.16",201,2,0,0
"65",163,"right","SHINEd_Bandage_Adhesive.jpg","incongruent","m",744.229596,"f","f","left","(862, 362)",107,1,755.357716364418,109.122256395668," 1992.18",300,3,0,0
"65",164,"left","SHINEd_RibbonSpool.jpg","congruent","m",666.470545,"f","f","left","(148, 362)",80,1,677.830135228066,31.5946752593162," 2021.20",250,4,1,1
"65",165,"left","SHINEd_fig.jpg","incongruent","n",728.674749,"j","j","right","(148, 362)",412,1,740.265809091715,94.0303491229646," 2091.16",124,3,1,1
"65",166,"right","SHINEd_WateringCan_PlasticDarkGreen.jpg","incongruent","m",773.518044,"f","f","left","(862, 362)",215,1,785.340573955363,139.105113986613," 2305.92",282,4,1,1
"65",167,"right","SHINEd_Owl.jpg","congruent","n",631.88226,"j","j","right","(862, 362)",407,1,643.936259819011,-2.29920014973868," 2199.28",192,3,1,1
"65",168,"left","SHINEd_Clam.jpg","incongruent","n",466.803913,"j","j","right","(148, 362)",340,1,479.08938268266,-167.14607728609," 1597.96",104,4,1,1
"65",169,"left","SHINEd_LifeJacket_BlueYellow.jpg","congruent","m",671.410181,"f","f","left","(148, 362)",16,1,683.927120546308,37.6916605775581," 1086.90",208,4,1,1
"65",170,"left","SHINEd_Card_TwoSpade.jpg","congruent","m",691.636781,"f","f","left","(148, 362)",88,1,704.385190409957,58.1497304412066," 1006.29",351,4,1,1
"65",171,"left","SHINEd_Hammock.jpg","congruent","m",518.097592,"f","f","left","(148, 362)",208,1,531.077471273605,-115.157988695145," 2078.14",148,3,0,0
"65",172,"right","SHINEd_SpongeScrubbing.jpg","incongruent","m",504.777949,"f","f","left","(862, 362)",139,1,517.989298137253,-128.246161831497," 3816.55",162,2,0,0
"65",173,"right","SHINEd_aloe.jpg","congruent","n",557.744917,"j","j","right","(862, 362)",299,1,571.187736000902,-75.0477239678483," 2107.00",398,3,0,0
"65",174,"left","SHINEd_sloth.jpg","incongruent","n",567.792826,"f","j","right","(148, 362)",304,0,581.46711486455,-64.7683451041999," 2997.59",339,3,1,1
"65",175,"left","SHINEd_SnowGlobe.jpg","congruent","m",524.497947,"f","f","left","(148, 362)",84,1,538.403705728198,-107.831754240552," 2294.45",49,4,1,1
"65",176,"right","SHINEd_sunflowers.jpg","congruent","n",790.768964,"f","j","right","(862, 362)",395,0,804.906192591847,158.670732623097," 3157.31",371,4,1,1
"65",177,"left","SHINEd_Hazelnut.jpg","incongruent","n",836.238177,"j","j","right","(148, 362)",252,1,850.606875455495,204.371415486745," 1293.39",105,4,1,1
"65",178,"right","SHINEd_puffer-fish.jpg","congruent","n",551.817422,"j","j","right","(862, 362)",339,1,566.417590319144,-79.8178696496064," 1226.22",341,4,1,1
"65",179,"left","SHINEd_bullrush.jpg","incongruent","n",618.010388,"j","j","right","(148, 362)",324,1,632.842026182792,-13.3934337859579," 1854.55",158,4,1,1
"65",180,"left","SHINEd_DoubleBass.jpg","congruent","m",653.963024,"f","f","left","(148, 362)",8,1,669.02613204644,22.7906720776905," 1856.62",56,3,0,0
"65",181,"right","SHINEd_moth.jpg","congruent","n",617.61105,"j","j","right","(862, 362)",427,1,632.905627910089,-13.3298320586611," 2453.27",43,4,1,1
"65",182,"right","SHINEd_whistle.jpg","incongruent","m",654.018021,"f","f","left","(862, 362)",79,1,669.544068773737,23.3086088049873," 1865.27",322,4,1,1
"65",183,"left","SHINEd_SpinningWheel.jpg","congruent","m",624.996386,"f","f","left","(148, 362)",124,1,640.753903637386,-5.4815563313643,"  990.45",286,3,0,0
"65",184,"left","SHINEd_Squid_Pink.jpg","incongruent","n",597.95785,"j","j","right","(148, 362)",336,1,613.946837501034,-32.2886224677159," 1241.81",352,4,1,1
"65",185,"right","SHINEd_Nuts_Peanuts.jpg","congruent","n",384.610499,"j","j","right","(862, 362)",235,1,400.830956364682,-245.404503604068," 1831.19",236,4,1,1
"65",186,"right","SHINEd_Razor.jpg","incongruent","m",860.890817,"j","f","left","(862, 362)",119,0,877.342744228331,231.107284259581," 1549.39",205,3,0,0
"65",187,"right","SHINEd_pistachios-.jpg","congruent","n",631.623404,"j","j","right","(862, 362)",411,1,648.306801091979,2.0713411232293," 2742.40",254,3,0,0
"65",188,"left","SHINEd_TigerWhite.jpg","incongruent","n",811.698046,"j","j","right","(148, 362)",440,1,828.612912955628,182.377452986878," 1752.05",314,4,0,0
"65",189,"right","SHINEd_KeyHook_Empty.jpg","incongruent","m",646.630964,"f","f","left","(862, 362)",223,1,663.777300819276,17.541840850526," 2180.88",156,4,1,1
"65",190,"left","SHINEd_Fridge.jpg","congruent","m",738.716859,"f","f","left","(148, 362)",44,1,756.094665682924,109.859205714174," 2282.13",151,3,0,0
"65",191,"right","SHINEd_Stingray.jpg","congruent","n",572.536227,"j","j","right","(862, 362)",315,1,590.145503546573,-56.0899564221771," 1167.43",93,4,1,1
"65",192,"left","SHINEd_Cougar.jpg","incongruent","n",697.545413,"j","j","right","(148, 362)",276,1,715.386159410221,69.1506994414713," 3440.15",142,2,1,NA
"65",193,"right","SHINEd_LetterMail.jpg","incongruent","m",707.636677,"f","f","left","(862, 362)",75,1,725.70889327387,79.4734333051196," 2724.80",304,2,0,0
"65",194,"left","SHINEd_Lighter_Yellow.jpg","congruent","m",784.206344,"f","f","left","(148, 362)",104,1,802.510030137518,156.274570168768," 1406.78",292,2,0,0
"65",195,"right","SHINEd_Light_Siren.jpg","incongruent","m",643.859928,"f","f","left","(862, 362)",95,1,662.395084001166,16.1596240324164," 3188.82",13,3,1,1
"65",196,"left","SHINEd_Lock_Combination.jpg","congruent","m",623.825516,"f","f","left","(148, 362)",64,1,642.592141864815,-3.6433181039352," 1124.33",240,4,1,1
"65",197,"right","SHINEd_tooth.jpg","congruent","n",666.957327,"f","j","right","(862, 362)",363,0,685.955422728463,39.7199627597132," 1903.02",29,4,0,0
"65",198,"left","SHINEd_Hat_Explorer.jpg","congruent","m",445.739406,"f","f","left","(148, 362)",188,1,464.968971592112,-181.266488376638," 1759.77",159,1,0,0
"65",199,"left","SHINEd_Dill.jpg","incongruent","n",752.832726,"j","j","right","(148, 362)",256,1,772.29376145576,126.05830148701," 2052.42",323,4,1,1
"65",200,"right","SHINEd_bear.jpg","congruent","n",NA,"miss","j","right","(862, 362)",271,0,NA,NA," 1359.09",423,4,1,1
"65",201,"left","SHINEd_BookShelf.jpg","congruent","m",776.737381,"f","f","left","(148, 362)",204,1,796.661356183057,150.425896214307," 1382.93",127,1,0,0
"65",202,"right","SHINEd_Stapler_Regular.jpg","incongruent","m",540.239745,"f","f","left","(862, 362)",43,1,560.395190046705,-85.8402699220449," 2245.46",378,3,1,1
"65",203,"left","SHINEd_Hammer.jpg","congruent","m",520.018463,"f","f","left","(148, 362)",36,1,540.405377910354,-105.830082058396,"  701.37",433,3,0,0
"65",204,"left","SHINEd_Boots_KneeHigh.jpg","congruent","m",498.414285,"f","f","left","(148, 362)",152,1,519.032669774002,-127.202790194748," 3260.73",364,2,0,0
"65",205,"left","SHINEd_groundhog.jpg","incongruent","n",527.223239,"j","j","right","(148, 362)",404,1,548.07309363765,-98.1623663310996," 1031.46",435,4,1,1
"65",206,"left","SHINEd_HorseshoeCrab.jpg","incongruent","n",553.679042,"j","j","right","(148, 362)",260,1,574.760366501299,-71.4750934674513," 1980.95",421,4,1,1
"65",207,"left","SHINEd_Bolt.jpg","congruent","m",567.64771,"f","f","left","(148, 362)",32,1,588.960504364947,-57.2749556038029,"  758.92",409,4,1,1
"65",208,"left","SHINEd_bee.jpg","incongruent","n",714.91074,"j","j","right","(148, 362)",380,1,736.455004228596,90.2195442598456," 3006.82",54,3,1,1
"65",209,"left","SHINEd_Bird_CanadianGoose.jpg","incongruent","n",541.352788,"j","j","right","(148, 362)",388,1,563.128522092244,-83.106937876506," 4462.85",80,4,1,1
"65",210,"left","SHINEd_PencilCase.jpg","congruent","m",433.488951,"j","f","left","(148, 362)",68,0,455.496154955892,-190.739305012858,"  947.96",445,3,0,0
"65",211,"left","SHINEd_CinderBlock.jpg","congruent","m",549.150125,"f","f","left","(148, 362)",108,1,571.388798819541,-74.8466611492093," 1124.58",368,1,0,0
"65",212,"right","SHINEd_Organ.jpg","incongruent","m",575.563792,"f","f","left","(862, 362)",7,1,598.033935683189,-48.2015242855608," 2197.04",310,2,1,NA
"65",213,"right","SHINEd_Shoes_Pumps.jpg","incongruent","m",748.434846,"f","f","left","(862, 362)",151,1,771.136459546838,124.900999578088," 2576.02",26,4,1,1
"65",214,"left","SHINEd_Box_Package.jpg","congruent","m",471.533257,"f","f","left","(148, 362)",220,1,494.466340410486,-151.769119558264," 2344.27",19,4,1,1
"65",215,"left","SHINEd_CoffeeBeans.jpg","incongruent","n",539.323619,"j","j","right","(148, 362)",332,1,562.488172274134,-83.7472876946157," 1060.75",243,4,1,1
"65",216,"left","SHINEd_Celery.jpg","incongruent","n",535.066954,"j","j","right","(148, 362)",272,1,558.462977137783,-87.7724828309673," 1167.32",169,4,1,1
"65",217,"left","SHINEd_Cologne.jpg","congruent","m",618.523695,"f","f","left","(148, 362)",116,1,642.151188001431,-4.08427196731891," 1453.68",263,4,1,1
"65",218,"right","SHINEd_Notepad.jpg","incongruent","m",677.375361,"f","f","left","(862, 362)",71,1,701.23432386508,54.9988638963295," 2255.04",363,2,1,NA
"65",219,"right","SHINEd_Belt.jpg","incongruent","m",865.662629,"j","f","left","(862, 362)",195,0,889.753061728728,243.517601759978," 1670.60",327,4,1,1
"65",220,"right","SHINEd_Peach.jpg","congruent","n",893.080691,"j","j","right","(862, 362)",323,1,917.402593592376,271.167133623626," 1293.58",134,4,1,1
"65",221,"left","SHINEd_Tape_Scotch.jpg","congruent","m",697.794808,"f","f","left","(148, 362)",228,1,722.348180456025,76.1127204872747,"  939.98",328,4,1,1
"65",222,"left","SHINEd_Bus_DoubleDecker.jpg","congruent","m",627.489213,"f","f","left","(148, 362)",184,1,652.274055319673,6.03859535092304," 3749.18",289,2,1,NA
"65",223,"right","SHINEd_tentacle.jpg","congruent","n",607.10916,"j","j","right","(862, 362)",247,1,632.125472183321,-14.1099877854285," 2023.64",107,4,1,1
"65",224,"left","SHINEd_Leaf_Green.jpg","incongruent","n",516.090268,"j","j","right","(148, 362)",448,1,541.33805004697,-104.89740992178," 1478.10",401,2,0,0
"65",225,"left","SHINEd_dove.jpg","incongruent","n",431.188356,"j","j","right","(148, 362)",308,1,456.667607910618,-189.567852058132," 1793.92",113,4,0,0
"65",226,"right","SHINEd_Coral.jpg","congruent","n",410.846612,"j","j","right","(862, 362)",455,1,436.557333774267,-209.678126194483," 1950.28",149,4,1,1
"65",227,"right","SHINEd_FireHydrant.jpg","incongruent","m",719.817987,"f","f","left","(862, 362)",167,1,745.760178637915,99.5247186691651,"  621.39",432,3,0,0
"65",228,"right","SHINEd_Snowboard.jpg","incongruent","m",667.086001,"f","f","left","(862, 362)",23,1,693.259662501563,47.0242025328135," 1790.37",420,3,0,0
