"participant","trial_index","screenposition","stimulus","trialtype","classifyenc","rt","response","responsecorrect","responsecorrect_side","screenlocation","stimnum","acc","rtResidual","rtResidualC","rt_rec","trialno_rec","ratingConfidence","acc_rec","memoryHits.hc"
"67",1,"left","SHINEd_Dog_ChowChow.jpg","incongruent","n",889.80718,"j","j","right","(148, 362)",369,1,852.041856741255,226.09466910364,"  902.51",294,4,0,0
"67",2,"left","SHINEd_HotWaterBottle.jpg","congruent","m",677.006478,"f","f","left","(148, 362)",113,1,639.570086798888,13.6228991612729," 1304.85",100,4,1,1
"67",3,"left","SHINEd_FlipFlop_PairBlue.jpg","congruent","m",744.741701,"f","f","left","(148, 362)",153,1,707.634241856517,81.6870542189023," 1029.40",263,4,1,1
"67",4,"left","SHINEd_Giraffe.jpg","incongruent","n",493.981495,"f","j","right","(148, 362)",381,0,457.202967914146,-168.744219723468," 1533.89",377,3,0,0
"67",5,"right","SHINEd_treestump.jpg","congruent","n",968.820344,"j","j","right","(862, 362)",414,1,932.370748971776,306.423561334161," 1109.31",123,4,1,1
"67",6,"left","SHINEd_Leaf_Clover.jpg","incongruent","n",612.607664,"j","j","right","(148, 362)",449,1,576.487001029405,-49.4601866082096," 1270.10",456,3,0,0
"67",7,"right","SHINEd_pomegrant.jpg","congruent","n",960.863666,"j","j","right","(862, 362)",354,1,925.071935087034,299.12474744942,"  958.60",75,4,1,1
"67",8,"right","SHINEd_Mirror_Makeup.jpg","incongruent","m",698.593223,"f","f","left","(862, 362)",122,1,663.130424144664,37.1832365070491,"  854.14",160,4,1,1
"67",9,"right","SHINEd_mushroom_other.jpg","congruent","n",854.599422,"j","j","right","(862, 362)",426,1,819.465555202293,193.518367564679," 2420.67",310,2,0,0
"67",10,"left","SHINEd_white_strawberries.jpg","incongruent","n",555.190932,"j","j","right","(148, 362)",417,1,520.385997259923,-105.561190377692,"  774.27",280,4,1,1
"67",11,"left","SHINEd_Knife_Camping.jpg","congruent","m",NA,"miss","f","left","(148, 362)",37,0,NA,NA," 1428.30",74,4,1,1
"67",12,"right","SHINEd_Clip_Paper.jpg","incongruent","m",650.293867,"f","f","left","(862, 362)",66,1,616.146796375181,-9.80039126243335," 1084.52",423,4,1,1
"67",13,"right","SHINEd_Goat.jpg","congruent","n",534.707237,"j","j","right","(862, 362)",322,1,500.889098432811,-125.058089204804," 1103.10",286,4,1,1
"67",14,"left","SHINEd_donkey.jpg","incongruent","n",554.436985,"f","j","right","(148, 362)",409,0,520.94777849044,-104.999409147175," 1089.19",316,4,1,1
"67",15,"left","SHINEd_Megaphone.jpg","congruent","m",885.889411,"f","f","left","(148, 362)",101,1,852.72913654807,226.781948910455," 1161.79",24,4,1,1
"67",16,"left","SHINEd_Quartz.jpg","incongruent","n",663.743069,"j","j","right","(148, 362)",401,1,630.911726605699,4.96453896808419," 2360.34",2,1,0,0
"67",17,"left","SHINEd_DentalFloss.jpg","congruent","m",829.681424,"f","f","left","(148, 362)",117,1,797.179013663328,171.231826025714," 1667.21",373,4,1,1
"67",18,"left","SHINEd_orchid.jpg","incongruent","n",NA,"miss","j","right","(148, 362)",261,0,NA,NA," 1100.17",421,4,1,1
"67",19,"right","SHINEd_couch.jpg","incongruent","m",708.184367,"f","f","left","(862, 362)",202,1,676.339820778587,50.3926331409723," 1020.56",340,4,1,1
"67",20,"right","SHINEd_Cantaloupe.jpg","congruent","n",632.211058,"f","j","right","(862, 362)",338,0,600.695443836216,-25.2517438013983,"  734.85",88,4,1,1
"67",21,"left","SHINEd_dinosaur fossil.jpg","incongruent","n",NA,"miss","j","right","(148, 362)",377,0,NA,NA,"  734.26",107,4,1,1
"67",22,"right","SHINEd_Deodorant.jpg","incongruent","m",703.000889,"f","f","left","(862, 362)",118,1,672.143138951475,46.1959513138605," 1846.88",62,4,1,1
"67",23,"left","SHINEd_Boat_Colourful.jpg","congruent","m",701.702436,"f","f","left","(148, 362)",173,1,671.173618009105,45.2264303714899," 4343.21",35,4,1,1
"67",24,"right","SHINEd_Ball_Bowling.jpg","incongruent","m",639.475057,"j","f","left","(862, 362)",134,0,609.275171066734,-16.6720165708808," 1008.57",18,4,1,1
"67",25,"left","SHINEd_Crown.jpg","congruent","m",595.969219,"f","f","left","(148, 362)",193,1,566.098265124363,-59.8489225132515,"  972.97",448,4,1,1
"67",26,"right","SHINEd_Clarinet.jpg","incongruent","m",809.494607,"f","f","left","(862, 362)",6,1,779.952585181993,154.005397544378," 1202.85",385,4,1,1
"67",27,"right","SHINEd_Cherry.jpg","congruent","n",758.435859,"j","j","right","(862, 362)",258,1,729.222769239622,103.275581602007,"  599.13",106,4,1,1
"67",28,"right","SHINEd_wheat_stock.jpg","congruent","n",611.019624,"j","j","right","(862, 362)",358,1,582.135466297251,-43.8117213403632,"  656.59",437,1,0,0
"67",29,"right","SHINEd_airpump.jpg","incongruent","m",614.663108,"f","f","left","(862, 362)",114,1,586.107882354881,-39.8393052827339," 1733.63",7,4,1,1
"67",30,"right","SHINEd_eucalyptus.jpg","congruent","n",696.334372,"j","j","right","(862, 362)",282,1,668.10807841251,42.1608907748955,"  886.17",19,4,1,1
"67",31,"left","SHINEd_Branch.jpg","incongruent","n",630.460684,"f","j","right","(148, 362)",333,0,602.56332247014,-23.3838651674751," 1077.71",419,3,0,0
"67",32,"right","SHINEd_Lipstick.jpg","incongruent","m",330.623949,"j","f","left","(862, 362)",198,0,303.055519527769,-322.891668109846," 1335.90",272,4,1,1
"67",33,"right","SHINEd_Bowl_Fruits.jpg","congruent","n",686.609997,"j","j","right","(862, 362)",434,1,659.370499585398,33.4233119477837," 1108.93",379,4,1,1
"67",34,"right","SHINEd_Glove_Rubber.jpg","incongruent","m",754.653626,"f","f","left","(862, 362)",138,1,727.743060643028,101.795873005413,"  805.97",195,4,1,1
"67",35,"left","SHINEd_Switch_LightWhite.jpg","congruent","m",716.962568,"f","f","left","(148, 362)",57,1,690.380934700657,64.4337470630424,"  897.32",321,1,0,0
"67",36,"right","SHINEd_Box_Notepaper.jpg","incongruent","m",464.849281,"f","f","left","(862, 362)",70,1,438.596579758286,-187.350607879328," 1105.15",192,1,0,0
"67",37,"right","SHINEd_greenapple.jpg","congruent","n",523.880684,"j","j","right","(862, 362)",410,1,497.956914815916,-127.990272821699," 1175.45",165,3,0,0
"67",38,"left","SHINEd_red_panda.jpg","incongruent","n",351.916697,"f","j","right","(148, 362)",273,0,326.321859873545,-299.625327764069," 1661.90",287,3,0,0
"67",39,"right","SHINEd_Currants.jpg","congruent","n",NA,"miss","j","right","(862, 362)",254,0,NA,NA," 1709.37",348,4,1,1
"67",40,"right","SHINEd_Boardgame_Chess.jpg","incongruent","m",695.88909,"f","f","left","(862, 362)",86,1,670.952116988804,45.0049293511893,"  696.09",265,4,1,1
"67",41,"left","SHINEd_Binder.jpg","congruent","m",651.313393,"f","f","left","(148, 362)",65,1,626.705352046433,0.758164408818681," 1053.76",220,4,1,1
"67",42,"right","SHINEd_Briefcase_Leather.jpg","incongruent","m",689.552319,"f","f","left","(862, 362)",210,1,665.273210104063,39.326022466448," 1815.14",119,2,1,NA
"67",43,"left","SHINEd_RecordPlayer.jpg","congruent","m",564.584489,"f","f","left","(148, 362)",149,1,540.634312161692,-85.3128754759226," 1287.18",451,3,0,0
"67",44,"right","SHINEd_Kite_Rainbow.jpg","incongruent","m",679.168001,"j","f","left","(862, 362)",78,0,655.546756219321,29.5995685817068,"  702.18",246,4,1,1
"67",45,"right","SHINEd_TissueBox.jpg","incongruent","m",668.380774,"f","f","left","(862, 362)",50,1,645.088461276951,19.1412736393361," 1279.60",63,4,1,1
"67",46,"left","SHINEd_Escalator.jpg","congruent","m",302.931981,"f","f","left","(148, 362)",177,1,279.96860033458,-345.978587303034,"  871.32",411,4,0,0
"67",47,"left","SHINEd_dragonfruit.jpg","incongruent","n",402.522999,"f","j","right","(148, 362)",437,0,379.88855039221,-246.058637245405," 1508.66",194,4,1,1
"67",48,"left","SHINEd_koala.jpg","incongruent","n",669.47357,"j","j","right","(148, 362)",365,1,647.168053449839,21.2208658122243,"  717.15",393,4,1,1
"67",49,"left","SHINEd_Mitt_Oven.jpg","congruent","m",601.691865,"f","f","left","(148, 362)",137,1,579.715280507468,-46.2319071301463,"  646.41",103,4,1,1
"67",50,"right","SHINEd_Helmet_Bicycle.jpg","incongruent","m",461.433853,"j","f","left","(862, 362)",18,0,439.786200565098,-186.160987072517," 1084.84",334,4,1,1
"67",51,"left","SHINEd_Vest.jpg","congruent","m",600.108869,"f","f","left","(148, 362)",5,1,578.790148622727,-47.1570390148875," 2200.26",6,4,1,1
"67",52,"left","SHINEd_Pacifier.jpg","congruent","m",540.568804,"f","f","left","(148, 362)",81,1,519.579015680357,-106.368171957258,"  983.38",304,4,1,1
"67",53,"left","SHINEd_Broccoli.jpg","incongruent","n",641.683404,"j","j","right","(148, 362)",253,1,621.022547737986,-4.9246398996288," 1684.18",213,1,0,0
"67",54,"left","SHINEd_Gum_Pack.jpg","congruent","m",787.758645,"f","f","left","(148, 362)",77,1,767.426720795615,141.479533158001," 1077.72",376,4,1,1
"67",55,"left","SHINEd_pickle.jpg","incongruent","n",601.202975,"j","j","right","(148, 362)",373,1,581.199982853245,-44.74720478437," 1164.17",40,4,1,1
"67",56,"left","SHINEd_Pineapple.jpg","incongruent","n",581.656231,"j","j","right","(148, 362)",353,1,561.982170910874,-63.9650167267406,"  686.36",108,4,1,1
"67",57,"left","SHINEd_Pants_Firefighter.jpg","congruent","m",711.863785,"f","f","left","(148, 362)",1,1,692.518656968503,66.5714693308887," 1393.38",445,2,0,0
"67",58,"right","SHINEd_Car_Vintage.jpg","incongruent","m",811.281375,"j","f","left","(862, 362)",186,0,792.265179026133,166.317991388518," 1818.68",358,3,1,1
"67",59,"right","SHINEd_Nuts_Walnut.jpg","congruent","n",735.920837,"j","j","right","(862, 362)",446,1,717.233573083762,91.2863854461475," 1151.67",414,4,1,1
"67",60,"left","SHINEd_catfish.jpg","incongruent","n",659.669062,"f","j","right","(148, 362)",361,0,641.310730141392,15.3635425037769," 1214.39",116,4,0,0
"67",61,"right","SHINEd_Scooter.jpg","incongruent","m",NA,"miss","f","left","(862, 362)",174,0,NA,NA,"  902.63",396,4,1,1
"67",62,"right","SHINEd_volcano copy.jpg","congruent","n",914.487355,"j","j","right","(862, 362)",234,1,896.78688725665,270.839699619036," 1174.99",283,4,1,1
"67",63,"right","SHINEd_Bench_Black.jpg","incongruent","m",654.039113,"f","f","left","(862, 362)",206,1,636.66757731428,10.720389676665," 1008.62",241,4,1,1
"67",64,"right","SHINEd_Cranberry.jpg","congruent","n",593.569834,"j","j","right","(862, 362)",398,1,576.527230371909,-49.4199572657056,"  816.59",237,4,1,1
"67",65,"left","SHINEd_Corn.jpg","incongruent","n",654.388009,"j","j","right","(148, 362)",337,1,637.674337429538,11.7271497919238," 1113.08",159,4,1,1
"67",66,"right","SHINEd_Tomato.jpg","congruent","n",602.627654,"j","j","right","(862, 362)",450,1,586.242914487168,-39.7042731504469," 2136.14",277,4,1,1
"67",67,"left","SHINEd_Bird_Parrot.jpg","incongruent","n",695.843909,"f","j","right","(148, 362)",233,0,679.788101544797,53.8409139071826," 1041.68",15,4,1,1
"67",68,"right","SHINEd_Heater_Outdoor.jpg","incongruent","m",722.944699,"j","f","left","(862, 362)",170,0,707.217823602427,81.2706359648119," 1119.63",299,4,0,0
"67",69,"right","SHINEd_avocado.jpg","congruent","n",NA,"miss","j","right","(862, 362)",394,0,NA,NA," 1486.57",375,3,0,0
"67",70,"left","SHINEd_Cloud.jpg","incongruent","n",603.714238,"j","j","right","(148, 362)",385,1,588.645226717685,-37.3019609199293,"  654.56",261,4,1,1
"67",71,"right","SHINEd_Feet.jpg","congruent","n",495.873184,"j","j","right","(862, 362)",310,1,481.133104775315,-144.8140828623,"  981.24",151,4,1,1
"67",72,"left","SHINEd_mizuna.jpg","incongruent","n",650.242616,"j","j","right","(148, 362)",429,1,635.831468832944,9.88428119532939,"  894.22",406,4,1,1
"67",73,"left","SHINEd_Magnifying_Glass.jpg","congruent","m",656.13108,"f","f","left","(148, 362)",105,1,642.048864890573,16.1016772529588,"  838.07",366,4,1,1
"67",74,"right","SHINEd_Slide.jpg","incongruent","m",770.945873,"f","f","left","(862, 362)",82,1,757.192589948203,131.245402310588," 1226.27",17,4,1,1
"67",75,"left","SHINEd_Saw.jpg","congruent","m",550.592415,"f","f","left","(148, 362)",33,1,537.168064005832,-88.7791236317825," 2187.02",180,2,1,NA
"67",76,"right","SHINEd_BearPolar.jpg","congruent","n",513.919233,"j","j","right","(862, 362)",386,1,500.823814063462,-125.123373574153," 1044.51",86,4,1,1
"67",77,"right","SHINEd_Door_Green.jpg","incongruent","m",893.530253,"f","f","left","(862, 362)",106,1,880.763766121091,254.816578483476," 1649.75",54,4,1,1
"67",78,"right","SHINEd_ladybug.jpg","congruent","n",675.479115,"j","j","right","(862, 362)",238,1,663.04156017872,37.0943725411056," 1512.67",319,1,0,0
"67",79,"right","SHINEd_LightHouse.jpg","incongruent","m",781.848233,"f","f","left","(862, 362)",146,1,769.73961023635,143.792422598735," 1361.01",260,3,1,1
"67",80,"right","SHINEd_Dog_CockerSpaniel.jpg","congruent","n",524.056531,"j","j","right","(862, 362)",306,1,512.276840293979,-113.670347343636," 1188.77",351,4,1,1
"67",81,"right","SHINEd_ChalkboardEraser.jpg","incongruent","m",759.168275,"f","f","left","(862, 362)",62,1,747.717516351608,121.770328713994," 1646.81",82,4,1,1
"67",82,"right","SHINEd_hyena.jpg","congruent","n",619.652564,"j","j","right","(862, 362)",422,1,608.530737409238,-17.4164502283768," 1117.81",253,2,0,0
"67",83,"right","SHINEd_LawnMower.jpg","incongruent","m",673.091064,"f","f","left","(862, 362)",46,1,662.298169466867,36.3509818292525,"  774.52",109,4,1,1
"67",84,"right","SHINEd_Flamingo_Real.jpg","congruent","n",596.534919,"j","j","right","(862, 362)",406,1,586.070956524497,-39.8762311131181," 1216.56",292,4,0,0
"67",85,"left","SHINEd_Tree_Fir.jpg","incongruent","n",417.518544,"f","j","right","(148, 362)",229,0,407.383513582126,-218.563674055489," 1166.98",83,4,1,1
"67",86,"left","SHINEd_Ruler_Wooden.jpg","congruent","m",507.235852,"j","f","left","(148, 362)",73,0,497.429753639755,-128.517433997859," 1319.89",10,4,1,1
"67",87,"left","SHINEd_Camera_Video.jpg","congruent","m",631.559853,"f","f","left","(148, 362)",97,1,622.082686697385,-3.86450094022995," 1461.53",96,3,0,0
"67",88,"left","SHINEd_WatermelonSlice.jpg","incongruent","n",747.505796,"j","j","right","(148, 362)",325,1,738.357561755014,112.410374117399,"  734.11",200,4,1,1
"67",89,"right","SHINEd_Grape.jpg","congruent","n",696.591769,"j","j","right","(862, 362)",274,1,687.772466812644,61.8252791750288,"  847.51",131,4,1,1
"67",90,"right","SHINEd_HairClip.jpg","incongruent","m",754.560022,"j","f","left","(862, 362)",194,0,746.069651870273,120.122464232658,"  812.61",162,4,1,1
"67",91,"left","SHINEd_Knee.jpg","incongruent","n",934.789908,"j","j","right","(148, 362)",309,1,926.628469927902,300.681282290288," 1368.41",243,4,1,1
"67",92,"right","SHINEd_skeleton-lizard.jpg","congruent","n",843.893459,"j","j","right","(862, 362)",250,1,836.060952985532,210.113765347917," 1568.79",212,4,1,1
"67",93,"left","SHINEd_starfruit.jpg","incongruent","n",679.57951,"j","j","right","(148, 362)",317,1,672.075936043161,46.1287484055464,"  950.29",266,4,1,1
"67",94,"right","SHINEd_scallion.jpg","congruent","n",529.851746,"j","j","right","(862, 362)",314,1,522.67710410079,-103.270083536824," 1566.47",233,4,1,1
"67",95,"right","SHINEd_MobilityScooter.jpg","incongruent","m",623.029375,"f","f","left","(862, 362)",182,1,616.18366515842,-9.76352247919493," 1436.43",248,3,1,1
"67",96,"left","SHINEd_okapi.jpg","incongruent","n",664.706729,"j","j","right","(148, 362)",425,1,658.189951216049,32.2427635784345," 1521.63",16,1,0,0
"67",97,"right","SHINEd_RamAnimal.jpg","congruent","n",701.992651,"j","j","right","(862, 362)",454,1,695.804805273679,69.8576176360639," 1980.37",273,3,0,0
"67",98,"left","SHINEd_rhino horn.jpg","incongruent","n",833.69263,"j","j","right","(148, 362)",249,1,827.833716331308,201.886528693693,"  857.10",285,4,1,1
"67",99,"left","SHINEd_Gloves_WhiteKnit.jpg","congruent","m",653.353015,"f","f","left","(148, 362)",197,1,647.823033388937,21.8758457513226,"  664.53",267,4,1,1
"67",100,"right","SHINEd_discoball.jpg","incongruent","m",608.845171,"f","f","left","(862, 362)",226,1,603.644121446567,-22.303066191048," 1093.68",365,4,1,1
"67",101,"left","SHINEd_pumpkinseeds-.jpg","incongruent","n",804.667887,"j","j","right","(148, 362)",237,1,799.795769504196,173.848581866581,"  806.76",357,3,0,0
"67",102,"right","SHINEd_Starfish.jpg","congruent","n",616.22187,"j","j","right","(862, 362)",378,1,611.678684561825,-14.2685030757893,"  882.15",155,4,1,1
"67",103,"right","SHINEd_Bugle.jpg","incongruent","m",597.642076,"f","f","left","(862, 362)",14,1,593.427822619455,-32.5193650181599,"  815.62",8,4,1,1
"67",104,"right","SHINEd_Cat.jpg","congruent","n",625.490623,"j","j","right","(862, 362)",362,1,621.605301677084,-4.34188596053046,"  855.51",264,4,1,1
"67",105,"right","SHINEd_peacockfeather.jpg","congruent","n",579.569855,"j","j","right","(862, 362)",382,1,576.013465734713,-49.9337219029011,"  761.14",171,3,0,0
"67",106,"left","SHINEd_Leg.jpg","incongruent","n",694.852763,"j","j","right","(148, 362)",405,1,691.625305792343,65.6781181547283,"  758.48",443,4,1,1
"67",107,"right","SHINEd_Radish.jpg","congruent","n",580.637951,"j","j","right","(862, 362)",242,1,577.739425849972,-48.2077617876423," 1548.22",174,4,1,1
"67",108,"left","SHINEd_soil.jpg","incongruent","n",632.378673,"j","j","right","(148, 362)",289,1,629.809079907602,3.86189226998708," 2644.94",322,4,1,1
"67",109,"right","SHINEd_grasshopper.jpg","congruent","n",661.082615,"j","j","right","(862, 362)",286,1,658.841953965231,32.8947663276164," 1605.46",188,3,0,0
"67",110,"left","SHINEd_Collards.jpg","incongruent","n",506.296115,"j","j","right","(148, 362)",445,1,504.38438602286,-121.562801614754,"  864.04",161,4,1,1
"67",111,"left","SHINEd_Vase_Decorative copy.jpg","congruent","m",518.269915,"j","f","left","(148, 362)",221,0,516.68711808049,-109.260069557125," 3135.98",207,1,0,0
"67",112,"right","SHINEd_CasketOpen.jpg","incongruent","m",450.407302,"j","f","left","(862, 362)",218,0,449.153437138119,-176.793750499495," 1510.58",349,4,1,1
"67",113,"left","SHINEd_Wheel_Steering.jpg","congruent","m",668.46754,"f","f","left","(148, 362)",185,1,667.542607195749,41.5954195581339," 1191.62",218,4,1,1
"67",114,"left","SHINEd_Bottle_Blue.jpg","congruent","m",457.732392,"f","f","left","(148, 362)",217,1,457.136391253378,-168.810796384237,"  862.69",446,4,1,1
"67",115,"right","SHINEd_Hourglass.jpg","incongruent","m",455.849696,"f","f","left","(862, 362)",110,1,455.582627311007,-170.364560326607," 1552.13",257,4,1,1
"67",116,"right","SHINEd_Butterfly.jpg","congruent","n",537.577615,"f","j","right","(862, 362)",318,0,537.639478368637,-88.3077092689779," 1837.15",325,2,1,NA
"67",117,"right","SHINEd_RollerBlade.jpg","incongruent","m",622.730273,"f","f","left","(862, 362)",178,1,623.121068426266,-2.82611921134855," 1509.03",415,3,0,0
"67",118,"left","SHINEd_DogHouse.jpg","congruent","m",609.912441,"j","f","left","(148, 362)",165,0,610.632168483895,-15.3150191537192,"  906.08",133,3,0,0
"67",119,"right","SHINEd_Teapot.jpg","incongruent","m",573.173487,"f","f","left","(862, 362)",214,1,574.222146541525,-51.7250410960898," 2115.35",5,4,0,0
"67",120,"right","SHINEd_Fruit_Orange.jpg","congruent","n",705.300181,"f","j","right","(862, 362)",302,0,706.677772599154,80.7305849615395," 1277.07",71,2,0,0
"67",121,"right","SHINEd_ElectricOutlet.jpg","incongruent","m",788.550293,"f","f","left","(862, 362)",102,1,790.256816656784,164.309629019169," 1101.10",433,4,1,1
"67",122,"right","SHINEd_Bird_Pelican.jpg","congruent","n",752.372379,"j","j","right","(862, 362)",402,1,754.407834714413,128.460647076798,"  858.06",168,3,0,0
"67",123,"left","SHINEd_Lychee.jpg","incongruent","n",684.404622,"j","j","right","(148, 362)",321,1,686.769009772042,60.8218221344277," 1993.90",152,3,1,1
"67",124,"left","SHINEd_Carrot.jpg","incongruent","n",576.667428,"j","j","right","(148, 362)",281,1,579.360747829672,-46.5864398079429,"  655.06",204,3,0,0
"67",125,"right","SHINEd_Nuts_Pecan.jpg","congruent","n",718.750994,"j","j","right","(862, 362)",246,1,721.773245887301,95.8260582496865,"  919.26",105,4,1,1
"67",126,"right","SHINEd_Ball_Basketball.jpg","incongruent","m",418.386659,"j","f","left","(862, 362)",130,0,421.737842944931,-204.209344692684," 1247.48",407,3,0,0
"67",127,"left","SHINEd_DeepFryer.jpg","congruent","m",662.936076,"f","f","left","(148, 362)",161,1,666.61619200256,40.6690043649452," 4154.17",122,1,0,0
"67",128,"right","SHINEd_Fryingpan.jpg","incongruent","m",352.348608,"j","f","left","(862, 362)",158,0,356.357656060189,-269.589531577425," 1044.39",438,4,0,0
"67",129,"right","SHINEd_purple_yam.jpg","congruent","n",389.985089,"j","j","right","(862, 362)",442,1,394.323069117819,-231.624118519796," 1550.30",23,4,1,1
"67",130,"left","SHINEd_cheetah.jpg","incongruent","n",401.030661,"f","j","right","(148, 362)",245,0,405.697573175448,-220.249614462167,"  582.57",362,1,0,0
"67",131,"left","SHINEd_Chair_High.jpg","congruent","m",NA,"miss","f","left","(148, 362)",209,0,NA,NA,"  695.58",346,4,1,1
"67",132,"right","SHINEd_SkullDeer.jpg","congruent","n",495.793769,"j","j","right","(862, 362)",278,1,501.118545290707,-124.828642346908," 1390.22",189,3,1,1
"67",133,"left","SHINEd_Gorilla.jpg","incongruent","n",540.683959,"j","j","right","(148, 362)",285,1,546.337667348336,-79.6095202892785," 1760.99",308,1,0,0
"67",134,"right","SHINEd_antlers.jpg","congruent","n",407.935689,"j","j","right","(862, 362)",418,1,413.918329405966,-212.028858231649,"  918.51",138,4,1,1
"67",135,"left","SHINEd_artichoke.jpg","incongruent","n",420.223639,"j","j","right","(148, 362)",453,1,426.535211463595,-199.41197617402," 2583.29",53,3,1,1
"67",136,"left","SHINEd_whale.jpg","incongruent","n",606.85727,"j","j","right","(148, 362)",421,1,613.497774521224,-12.4494131163904,"  800.45",271,4,1,1
"67",137,"right","SHINEd_Seashell_BayScallop.jpg","congruent","n",586.831683,"j","j","right","(862, 362)",270,1,593.801119578854,-32.146068058761," 1299.26",330,4,1,1
"67",138,"left","SHINEd_Clock_Radio.jpg","congruent","m",542.043008,"f","f","left","(148, 362)",93,1,549.341376636483,-76.6058110011316,"  720.71",104,4,1,1
"67",139,"right","SHINEd_USBKey.jpg","incongruent","m",577.78495,"f","f","left","(862, 362)",90,1,585.412250694112,-40.5349369435023," 1022.91",156,4,1,1
"67",140,"left","SHINEd_Colander.jpg","congruent","m",549.191477,"f","f","left","(148, 362)",41,1,557.147709751742,-68.7994778858729," 1190.26",353,4,1,1
"67",141,"left","SHINEd_brusselsprouts.jpg","incongruent","n",627.396432,"j","j","right","(148, 362)",265,1,635.681596809371,9.73440917175652," 1430.66",197,4,0,0
"67",142,"left","SHINEd_fountain.jpg","congruent","m",838.00067,"f","f","left","(148, 362)",169,1,846.614766867001,220.667579229386," 1782.33",185,4,1,1
"67",143,"right","SHINEd_Jacket_Suit.jpg","incongruent","m",554.29044,"f","f","left","(862, 362)",2,1,563.23346892463,-62.7137187129847," 1463.88",14,4,1,1
"67",144,"left","SHINEd_Bowl_Wooden.jpg","congruent","m",566.953254,"f","f","left","(148, 362)",141,1,576.225214982259,-49.7219726553553," 1279.55",50,4,1,1
"67",145,"left","SHINEd_Mango.jpg","incongruent","n",411.148522,"f","j","right","(148, 362)",277,0,420.749415039889,-205.197772597726," 1305.21",12,4,1,1
"67",146,"left","SHINEd_catcus.jpg","incongruent","n",493.899238,"j","j","right","(148, 362)",313,1,503.829063097518,-122.118124540097," 1065.42",224,4,1,1
"67",147,"left","SHINEd_Cabinet_Display.jpg","congruent","m",753.407148,"f","f","left","(148, 362)",205,1,763.665905155147,137.718717517533,"  924.31",327,4,1,1
"67",148,"right","SHINEd_Calculator.jpg","incongruent","m",501.713188,"f","f","left","(862, 362)",94,1,512.300877212777,-113.646310424838," 1182.68",331,4,1,1
"67",149,"right","SHINEd_raccoon.jpg","congruent","n",665.484042,"j","j","right","(862, 362)",262,1,676.400663270406,50.4534756327916," 1333.69",134,4,1,1
"67",150,"left","SHINEd_Carabiner_Orange.jpg","congruent","m",492.758373,"f","f","left","(148, 362)",29,1,504.003926328036,-121.943261309579," 1432.50",418,4,1,1
"67",151,"left","SHINEd_Jetski.jpg","congruent","m",440.673963,"j","f","left","(148, 362)",181,0,452.248448385665,-173.69873925195," 1112.02",177,4,1,1
"67",152,"left","SHINEd_cottonplant.jpg","incongruent","n",572.471204,"j","j","right","(148, 362)",297,1,584.374621443294,-41.5725661943204," 1515.98",32,4,1,1
"67",153,"right","SHINEd_Boot_Rain.jpg","incongruent","m",448.479152,"f","f","left","(862, 362)",150,1,460.711501500924,-165.235686136691,"  623.95",101,4,1,1
"67",154,"right","SHINEd_manatee.jpg","congruent","n",578.150349,"f","j","right","(862, 362)",342,0,590.711630558553,-35.2355570790616,"  982.45",245,4,1,1
"67",155,"right","SHINEd_fox.jpg","congruent","n",734.607759,"f","j","right","(862, 362)",334,0,747.497972616182,121.550784978568,"  908.28",234,4,1,1
"67",156,"left","SHINEd_Drum_Bongos.jpg","congruent","m",755.849241,"f","f","left","(148, 362)",9,1,769.068386673812,143.121199036197,"  942.38",258,4,1,1
"67",157,"right","SHINEd_Cheesegrater_Handheld.jpg","incongruent","m",769.544568,"f","f","left","(862, 362)",162,1,783.092645731441,157.145458093827," 1073.08",87,4,1,1
"67",158,"left","SHINEd_Snail.jpg","incongruent","n",550.699572,"j","j","right","(148, 362)",241,1,564.576581789071,-61.370605848544,"  977.43",28,4,1,1
"67",159,"right","SHINEd_Dog_Bulldog.jpg","congruent","n",880.912808,"j","j","right","(862, 362)",326,1,895.1187498467,269.171562209085," 1309.97",281,2,1,NA
"67",160,"right","SHINEd_rose.jpg","congruent","n",597.146131,"j","j","right","(862, 362)",430,1,611.681004904329,-14.2661827332853,"  766.49",157,4,1,1
"67",161,"right","SHINEd_Flashlight.jpg","incongruent","m",NA,"miss","f","left","(862, 362)",98,0,NA,NA," 2181.81",231,1,0,0
"67",162,"left","SHINEd_Cannon.jpg","congruent","m",869.603334,"f","f","left","(148, 362)",61,1,884.796072019588,258.848884381974," 1089.42",441,4,1,1
"67",163,"right","SHINEd_accordion.jpg","incongruent","m",762.587892,"f","f","left","(862, 362)",10,1,778.109562077218,152.162374439603," 1476.21",343,4,1,1
"67",164,"right","SHINEd_lotusroot.jpg","congruent","n",650.433159,"j","j","right","(862, 362)",298,1,666.283761134847,40.3365734972323," 2877.91",77,1,1,NA
"67",165,"left","SHINEd_horse.jpg","incongruent","n",735.148951,"j","j","right","(148, 362)",269,1,751.328485192476,125.381297554862," 2372.93",199,4,1,1
"67",166,"right","SHINEd_DustPan.jpg","incongruent","m",602.48757,"f","f","left","(862, 362)",54,1,618.996036250106,-6.95115138750901," 1065.32",363,3,1,1
"67",167,"right","SHINEd_Pumpkin.jpg","congruent","n",565.301274,"j","j","right","(862, 362)",294,1,582.138672307735,-43.8085153298796," 1615.80",211,4,0,0
"67",168,"right","SHINEd_Bicycle_Kids.jpg","incongruent","m",NA,"miss","f","left","(862, 362)",26,0,NA,NA," 1311.01",341,3,0,0
"67",169,"right","SHINEd_honeydew.jpg","congruent","n",603.60797,"j","j","right","(862, 362)",330,1,621.103232422994,-4.84395521462085," 2663.79",175,1,1,NA
"67",170,"left","SHINEd_MusicSheet.jpg","congruent","m",648.284959,"f","f","left","(148, 362)",13,1,666.109153480623,40.1619658430085,"  684.88",225,4,1,1
"67",171,"right","SHINEd_spinach.jpg","congruent","n",547.503512,"j","j","right","(862, 362)",266,1,565.656638538253,-60.2905490993621," 2045.70",4,4,1,1
"67",172,"left","SHINEd_Fish_Rockbass.jpg","incongruent","n",591.433372,"j","j","right","(148, 362)",341,1,609.915430595882,-16.0317570417328,"  813.85",125,4,1,1
"67",173,"right","SHINEd_durian.jpg","congruent","n",537.589729,"f","j","right","(862, 362)",374,0,556.400719653511,-69.5464679841033," 3037.99",129,2,1,NA
"67",174,"right","SHINEd_Beater_Electric.jpg","incongruent","m",692.633852,"f","f","left","(862, 362)",42,1,711.773774711141,85.8265870735261," 1260.79",422,4,1,1
"67",175,"left","SHINEd_BusStop.jpg","congruent","m",650.902748,"f","f","left","(148, 362)",145,1,670.37160276877,44.4244151311554," 1743.66",291,4,1,1
"67",176,"right","SHINEd_Dragonfly.jpg","congruent","n",598.383033,"j","j","right","(862, 362)",346,1,618.180819826399,-7.76636781121527," 1580.47",381,1,0,0
"67",177,"left","SHINEd_Oyster.jpg","incongruent","n",400.530827,"j","j","right","(148, 362)",433,1,420.657545884029,-205.289641753586,"  920.91",143,4,1,1
"67",178,"left","SHINEd_Dice.jpg","congruent","m",612.843423,"f","f","left","(148, 362)",89,1,633.299073941658,7.35188630404356,"  993.46",449,4,1,1
"67",179,"right","SHINEd_Weights_Dumbells.jpg","incongruent","m",658.18186,"f","f","left","(862, 362)",22,1,678.966442999288,53.0192553616729,"  940.64",79,4,1,1
"67",180,"left","SHINEd_HairDryer.jpg","congruent","m",NA,"miss","f","left","(148, 362)",45,0,NA,NA," 1015.50",144,4,1,1
"67",181,"right","SHINEd_Gecko.jpg","congruent","n",329.338393,"j","j","right","(862, 362)",370,1,350.780840114546,-275.166347523068,"  670.87",163,4,1,1
"67",182,"left","SHINEd_Turtle.jpg","incongruent","n",557.843711,"j","j","right","(148, 362)",305,1,579.615090172176,-46.332097465439," 3478.03",57,4,1,1
"67",183,"right","SHINEd_skunk.jpg","congruent","n",448.184728,"j","j","right","(862, 362)",290,1,470.285039229805,-155.66214840781," 1254.90",137,4,1,1
"67",184,"left","SHINEd_Leek.jpg","incongruent","n",540.084586,"j","j","right","(148, 362)",357,1,562.513829287434,-63.4333583501803,"  834.02",41,4,1,1
"67",185,"right","SHINEd_Lips_Real.jpg","congruent","n",656.736089,"j","j","right","(862, 362)",390,1,679.494264345064,53.5470767074492," 1311.92",339,4,1,1
"67",186,"right","SHINEd_Bathtub.jpg","incongruent","m",683.120818,"j","f","left","(862, 362)",58,0,706.207925402693,80.2607377650785,"  965.41",66,4,1,1
"67",187,"left","SHINEd_ChainRusty.jpg","congruent","m",511.782821,"f","f","left","(148, 362)",21,1,535.198860460323,-90.7483271772921," 1142.97",452,4,1,1
"67",188,"left","SHINEd_Lilypad.jpg","incongruent","n",515.092599,"j","j","right","(148, 362)",413,1,538.837570517952,-87.1096171196627," 1327.15",405,4,1,1
"67",189,"left","SHINEd_Bird_Eagle.jpg","incongruent","n",421.069906,"j","j","right","(148, 362)",257,1,445.143809575581,-180.803378062033," 1190.92",378,4,1,1
"67",190,"left","SHINEd_ShoppingCart.jpg","congruent","m",434.525824,"j","f","left","(148, 362)",109,0,458.928659633211,-167.018528004404," 1367.77",399,1,0,0
"67",191,"left","SHINEd_Bleachers.jpg","congruent","m",669.620859,"j","f","left","(148, 362)",133,0,694.35262669084,68.4054390532255," 1446.04",425,3,1,1
"67",192,"right","SHINEd_Mask_HockeyGoalie.jpg","incongruent","m",496.226952,"f","f","left","(862, 362)",126,1,521.287651748469,-104.659535889145,"  886.02",355,3,0,0
"67",193,"left","SHINEd_worm.jpg","incongruent","n",661.025671,"f","j","right","(148, 362)",389,0,686.415302806099,60.4681151684842,"  768.70",145,4,1,1
"67",194,"left","SHINEd_Bottle_Beer.jpg","congruent","m",502.897705,"f","f","left","(148, 362)",213,1,528.616268863728,-97.3309187738864,"  781.47",296,4,0,0
"67",195,"left","SHINEd_vanillabean copy.jpg","incongruent","n",522.84145,"j","j","right","(148, 362)",329,1,548.888945921358,-77.058241716257," 1124.42",232,4,1,1
"67",196,"left","SHINEd_BasketballHoop.jpg","congruent","m",599.74377,"f","f","left","(148, 362)",129,1,626.120197978987,0.173010341372384,"  740.89",427,4,0,0
"67",197,"left","SHINEd_BicycleChain.jpg","congruent","m",419.869003,"f","f","left","(148, 362)",17,1,446.574363036616,-179.372824600998," 1092.65",274,4,1,1
"67",198,"left","SHINEd_Kettle.jpg","congruent","m",726.117662,"f","f","left","(148, 362)",157,1,753.151954094246,127.204766456631," 1169.27",142,4,1,1
"67",199,"right","SHINEd_Slippers.jpg","incongruent","m",834.317094,"f","f","left","(862, 362)",154,1,861.680318151875,235.73313051426," 1182.82",60,4,1,1
"67",200,"left","SHINEd_Desk_School.jpg","congruent","m",629.001837,"f","f","left","(148, 362)",201,1,656.693993209505,30.7468055718899," 1852.60",369,4,0,0
"67",201,"right","SHINEd_red_Cabbage.jpg","congruent","n",688.815266,"j","j","right","(862, 362)",230,1,716.836354267134,90.8891666295192," 2078.52",121,3,0,0
"67",202,"right","SHINEd_Bucket_Rusty.jpg","incongruent","m",636.07844,"f","f","left","(862, 362)",34,1,664.428460324763,38.4812726871486," 1116.57",99,3,0,0
"67",203,"left","SHINEd_BowlingPin.jpg","congruent","m",944.272833,"f","f","left","(148, 362)",25,1,972.951785382393,347.004597744778," 1096.19",92,1,0,0
"67",204,"left","SHINEd_Makeup_Compact.jpg","congruent","m",436.208643,"f","f","left","(148, 362)",121,1,465.216527440022,-160.730660197593,"  994.88",454,4,1,1
"67",205,"left","SHINEd_frog.jpg","incongruent","n",608.004576,"j","j","right","(148, 362)",345,1,637.341392497651,11.3942048600368,"  862.05",367,4,1,1
"67",206,"right","SHINEd_Drill.jpg","incongruent","m",698.757198,"f","f","left","(862, 362)",30,1,728.422946555281,102.475758917666," 1053.67",455,4,1,1
"67",207,"right","SHINEd_rabbitt.jpg","congruent","n",837.767288,"j","j","right","(862, 362)",350,1,867.76196861291,241.814780975296," 1265.74",84,4,1,1
"67",208,"right","SHINEd_Swing_Child.jpg","incongruent","m",808.881873,"f","f","left","(862, 362)",166,1,839.20548567054,213.258298032925," 1152.59",120,4,1,1
"67",209,"left","SHINEd_mosquito.jpg","incongruent","n",517.013659,"f","j","right","(148, 362)",393,0,547.666203728169,-78.2809839094458," 1680.49",38,3,1,1
"67",210,"left","SHINEd_Gametable_AirHockey.jpg","congruent","m",544.16277,"f","f","left","(148, 362)",85,1,575.144246785798,-50.8029408518163," 1801.11",210,1,0,0
"67",211,"left","SHINEd_Bells_Christmas.jpg","congruent","m",748.417602,"f","f","left","(148, 362)",225,1,779.728010843428,153.780823205813," 1007.15",149,4,1,1
"67",212,"right","SHINEd_ClothCoaster.jpg","incongruent","m",577.446538,"f","f","left","(862, 362)",142,1,609.085878901057,-16.8613087365576,"  839.27",408,4,1,1
"67",213,"right","SHINEd_PictureFrame.jpg","incongruent","m",460.361805,"f","f","left","(862, 362)",222,1,492.330077958686,-133.617109678928," 1302.46",214,2,1,NA
"67",214,"right","SHINEd_Lynx.jpg","congruent","n",591.10868,"j","j","right","(862, 362)",438,1,623.405885016316,-2.54130262129879," 1081.66",305,1,1,NA
"67",215,"right","SHINEd_Cane_Metal.jpg","incongruent","m",747.169427,"f","f","left","(862, 362)",190,1,779.795564073945,153.848376436331," 1103.93",67,4,1,1
"67",216,"right","SHINEd_PencilSharpener.jpg","incongruent","m",494.083909,"f","f","left","(862, 362)",74,1,527.038978131575,-98.9082095060401," 1142.05",302,4,1,1
"67",217,"left","SHINEd_Mattress.jpg","congruent","m",465.136042,"j","f","left","(148, 362)",49,0,498.420043189204,-127.527144448411," 1044.25",417,3,0,0
"67",218,"left","SHINEd_platypus.jpg","incongruent","n",654.287838,"f","j","right","(148, 362)",293,0,687.900771246833,61.9535836092186," 1054.16",186,4,1,1
"67",219,"left","SHINEd_Elephant.jpg","incongruent","n",561.345383,"j","j","right","(148, 362)",349,1,595.287248304463,-30.659939333152,"  998.18",27,4,1,1
"67",220,"right","SHINEd_brownbeans.jpg","congruent","n",554.899889,"j","j","right","(862, 362)",366,1,589.170686362092,-36.7765012755225," 1323.81",229,4,1,1
"67",221,"left","SHINEd_DoorKnob.jpg","congruent","m",623.992667,"f","f","left","(148, 362)",53,1,658.592396419721,32.6452087821068,"  939.98",390,4,1,1
"67",222,"left","SHINEd_Hat_Baseball.jpg","congruent","m",618.494327,"f","f","left","(148, 362)",189,1,653.422988477351,27.4758008397362,"  759.04",345,4,1,1
"67",223,"left","SHINEd_FileDivider.jpg","congruent","m",614.903527,"f","f","left","(148, 362)",69,1,650.16112053498,24.2139328973656,"  966.46",34,3,1,1
"67",224,"left","SHINEd_goldenberry.jpg","incongruent","n",609.486703,"j","j","right","(148, 362)",397,1,645.07322859261,19.126040954995," 1303.97",22,4,1,1
"67",225,"right","SHINEd_Nail.jpg","incongruent","m",950.265943,"f","f","left","(862, 362)",38,1,986.181400650239,360.234213012624,"  816.79",235,4,1,1
"67",226,"left","SHINEd_Skates.jpg","congruent","m",506.556995,"j","f","left","(148, 362)",125,0,542.801384707868,-83.1458029297463,"  905.59",64,4,1,1
"67",227,"left","SHINEd_Paw.jpg","incongruent","n",692.794258,"j","j","right","(148, 362)",301,1,729.367579765498,103.420392127883,"  830.64",344,4,1,1
"67",228,"left","SHINEd_Toad.jpg","incongruent","n",778.793609,"j","j","right","(148, 362)",441,1,815.695862823127,189.748675185512," 1022.51",228,4,1,1
