"participant","trial_index","screenposition","stimulus","trialtype","classifyenc","rt","response","responsecorrect","responsecorrect_side","screenlocation","stimnum","acc","rtResidual","rtResidualC","rt_rec","trialno_rec","ratingConfidence","acc_rec","memoryHits.hc"
"pilot_12",116,"left","SHINEd_Ball_Basketball.jpg","congruent","m",481.383851,"j","f","left","(148, 362)",130,0,481.551355864827,-115.321883152717,"1943.07",4,3,0,1
"pilot_12",23,"left","SHINEd_Ball_Bowling.jpg","congruent","m",683.625637,"j","f","left","(148, 362)",134,0,673.407840245568,76.5346012280237,"952.23",94,4,1,1
"pilot_12",31,"right","SHINEd_BasketballHoop.jpg","incongruent","m",675.02357,"f","f","left","(862, 362)",129,1,665.699132524644,68.8258935070998,"2477.23",221,3,0,1
"pilot_12",73,"left","SHINEd_Bathtub.jpg","congruent","m",593.424755,"f","f","left","(148, 362)",58,1,588.790453739793,-8.08278527775089,"883.64",223,3,1,1
"pilot_12",45,"left","SHINEd_BearPolar.jpg","incongruent","n",519.691962,"j","j","right","(148, 362)",386,1,511.930903263027,-84.9423357545171,"710.77",285,4,1,1
"pilot_12",144,"left","SHINEd_Beater_Electric.jpg","congruent","m",568.140448,"f","f","left","(148, 362)",42,1,571.434710341593,-25.4385286759509,"815.88",376,1,1,NA
"pilot_12",48,"right","SHINEd_Bells_Christmas.jpg","incongruent","m",921.146591,"f","f","left","(862, 362)",225,1,913.72054199268,316.847302975136,"1106.4",73,4,1,1
"pilot_12",125,"left","SHINEd_Bench_Black.jpg","congruent","m",495.52906,"f","f","left","(148, 362)",206,1,496.701594053787,-100.171644963757,"872.23",59,3,0,1
"pilot_12",50,"right","SHINEd_BicycleChain.jpg","incongruent","m",554.539547,"f","f","left","(862, 362)",17,1,547.336837812449,-49.5364012050946,"918.49",203,4,1,1
"pilot_12",207,"left","SHINEd_Bicycle_Kids.jpg","congruent","m",612.241364,"f","f","left","(148, 362)",26,1,622.570830664317,25.697591646773,"1110.47",218,3,0,1
"pilot_12",174,"right","SHINEd_Binder.jpg","incongruent","m",632.08425,"f","f","left","(862, 362)",65,1,638.728609638128,41.8553706205843,"1054.88",435,3,1,1
"pilot_12",222,"right","SHINEd_Bird_Eagle.jpg","congruent","n",563.863709,"j","j","right","(862, 362)",257,1,575.868224312584,-21.0050147049594,"775.74",363,4,1,1
"pilot_12",191,"right","SHINEd_Bird_Parrot.jpg","congruent","n",591.936747,"j","j","right","(862, 362)",233,1,600.479495106165,3.60625608862085,"1264.01",167,3,1,1
"pilot_12",18,"left","SHINEd_Bird_Pelican.jpg","incongruent","n",615.727838,"j","j","right","(148, 362)",402,1,604.951691696145,8.07845267860126,"1245.62",448,3,1,1
"pilot_12",88,"right","SHINEd_Bleachers.jpg","incongruent","m",576.649056,"f","f","left","(862, 362)",133,1,573.68980338806,-23.1834356294833,"977.81",61,4,1,1
"pilot_12",173,"left","SHINEd_Boardgame_Chess.jpg","congruent","m",572.974034,"f","f","left","(148, 362)",86,1,579.506723728244,-17.3665152893003,"856.25",431,3,1,1
"pilot_12",179,"right","SHINEd_Boat_Colourful.jpg","incongruent","m",555.691833,"f","f","left","(862, 362)",173,1,562.894542187551,-33.9786968299932,"1742.2",245,4,1,1
"pilot_12",137,"left","SHINEd_Boot_Rain.jpg","congruent","m",473.216171,"f","f","left","(148, 362)",150,1,475.728743972401,-121.144495045142,"935.57",62,4,1,1
"pilot_12",19,"right","SHINEd_Bottle_Beer.jpg","incongruent","m",666.833794,"f","f","left","(862, 362)",213,1,656.16931760603,59.2960785884858,"1967.7",215,3,0,1
"pilot_12",135,"right","SHINEd_Bottle_Blue.jpg","incongruent","m",503.15525,"f","f","left","(862, 362)",217,1,505.444483152632,-91.4287558649115,"823.09",246,4,1,1
"pilot_12",199,"left","SHINEd_Bowl_Fruits.jpg","incongruent","n",676.299509,"j","j","right","(148, 362)",434,1,685.735616385241,88.8623773676969,"1294.83",31,3,0,1
"pilot_12",38,"right","SHINEd_Bowl_Wooden.jpg","incongruent","m",647.982871,"f","f","left","(862, 362)",141,1,639.440122893835,42.5668838762914,"943.24",82,4,1,1
"pilot_12",77,"right","SHINEd_BowlingPin.jpg","incongruent","m",682.978905,"f","f","left","(862, 362)",25,1,678.791283379331,81.9180443617872,"861.78",281,4,1,1
"pilot_12",5,"left","SHINEd_Box_Notepaper.jpg","congruent","m",569.490789,"f","f","left","(148, 362)",70,1,557.262933867646,-39.6103051498974,"1435.21",39,1,1,NA
"pilot_12",86,"right","SHINEd_Branch.jpg","congruent","n",616.759329,"j","j","right","(862, 362)",333,1,613.576736568291,16.7034975507477,"999.6",75,4,1,1
"pilot_12",127,"left","SHINEd_Briefcase_Leather.jpg","congruent","m",504.381306,"f","f","left","(148, 362)",210,1,505.777179873556,-91.0960591439875,"959.57",377,3,0,1
"pilot_12",154,"right","SHINEd_Broccoli.jpg","congruent","n",552.567142,"j","j","right","(862, 362)",253,1,556.978103440438,-39.8951355771059,"646.1",427,4,1,1
"pilot_12",169,"left","SHINEd_Bucket_Rusty.jpg","congruent","m",790.136644,"f","f","left","(148, 362)",34,1,796.222654088706,199.349415071162,"1480.55",110,4,0,1
"pilot_12",9,"left","SHINEd_Bugle.jpg","congruent","m",577.652938,"f","f","left","(148, 362)",14,1,565.871762507184,-31.0014765103594,"925.2",222,3,0,1
"pilot_12",172,"right","SHINEd_BusStop.jpg","incongruent","m",664.849079,"f","f","left","(862, 362)",145,1,671.270098818359,74.3968598008152,"919.28",348,4,1,1
"pilot_12",123,"left","SHINEd_Butterfly.jpg","incongruent","n",582.753995,"j","j","right","(148, 362)",318,1,583.703189234018,-13.1700497835255,"1127.42",283,3,0,1
"pilot_12",42,"right","SHINEd_Cabinet_Display.jpg","incongruent","m",571.501861,"f","f","left","(862, 362)",205,1,563.405792533373,-33.4674464841706,"1487.65",272,2,1,NA
"pilot_12",226,"left","SHINEd_Calculator.jpg","congruent","m",525.065631,"f","f","left","(148, 362)",94,1,537.516825952123,-59.3564130654213,"928.27",106,4,1,1
"pilot_12",139,"right","SHINEd_Camera_Video.jpg","incongruent","m",568.337274,"f","f","left","(862, 362)",97,1,571.07318679217,-25.8000522253735,"3400.16",368,3,0,1
"pilot_12",194,"left","SHINEd_Cane_Metal.jpg","congruent","m",619.925774,"f","f","left","(148, 362)",190,1,628.803531835818,31.9302928182744,"3161.18",18,2,0,NA
"pilot_12",225,"right","SHINEd_Cannon.jpg","incongruent","m",538.702667,"f","f","left","(862, 362)",61,1,551.042192042238,-45.8310469753059,"983.91",70,4,1,1
"pilot_12",79,"left","SHINEd_Cantaloupe.jpg","incongruent","n",635.293459,"j","j","right","(148, 362)",338,1,631.3291771991,34.4559381815561,"888.07",336,2,0,NA
"pilot_12",104,"left","SHINEd_Car_Vintage.jpg","congruent","m",583.6661,"f","f","left","(148, 362)",186,1,582.493565946213,-14.3796730713312,"1184.93",77,4,0,1
"pilot_12",40,"right","SHINEd_Carabiner_Orange.jpg","incongruent","m",649.140248,"f","f","left","(862, 362)",29,1,640.820839713604,43.9476006960604,"838.55",89,4,1,1
"pilot_12",214,"right","SHINEd_Carrot.jpg","congruent","n",474.742369,"f","j","right","(862, 362)",281,0,485.853525033508,-111.019713984035,"1094.48",185,3,0,1
"pilot_12",25,"left","SHINEd_CasketOpen.jpg","congruent","m",651.605042,"f","f","left","(148, 362)",218,1,641.610585065337,44.7373460477928,"886.85",455,1,0,NA
"pilot_12",165,"left","SHINEd_Cat.jpg","incongruent","n",555.988968,"j","j","right","(148, 362)",362,1,561.628298449168,-35.2449405683763,"7080.94",2,3,0,1
"pilot_12",117,"right","SHINEd_ChainRusty.jpg","incongruent","m",548.421218,"f","f","left","(862, 362)",21,1,548.700392774711,-48.1728462428327,"1224.16",87,3,0,1
"pilot_12",56,"right","SHINEd_Chair_High.jpg","incongruent","m",580.000411,"f","f","left","(862, 362)",209,1,573.467721271756,-23.4055177457875,"1622.15",344,2,0,NA
"pilot_12",122,"left","SHINEd_ChalkboardEraser.jpg","congruent","m",586.150161,"f","f","left","(148, 362)",62,1,586.987685324134,-9.88555369341005,"1015.4",284,3,1,1
"pilot_12",187,"left","SHINEd_Cheesegrater_Handheld.jpg","congruent","m",640.010437,"f","f","left","(148, 362)",162,1,648.106505466627,51.2332664490829,"799.66",263,4,1,1
"pilot_12",53,"left","SHINEd_Cherry.jpg","incongruent","n",688.078312,"j","j","right","(148, 362)",258,1,681.210612542103,84.337373524559,"878.93",235,3,1,1
"pilot_12",160,"left","SHINEd_Clarinet.jpg","congruent","m",536.258016,"f","f","left","(148, 362)",6,1,541.338996899745,-55.5342421177988,"891.33",199,3,1,1
"pilot_12",2,"left","SHINEd_Clip_Paper.jpg","congruent","m",598.152171,"f","f","left","(148, 362)",66,1,585.589306137992,-11.2839328795517,"973.27",433,3,0,1
"pilot_12",91,"right","SHINEd_Clock_Radio.jpg","incongruent","m",586.601506,"f","f","left","(862, 362)",93,1,583.977263117714,-12.8959758998298,"952.15",375,3,1,1
"pilot_12",190,"left","SHINEd_ClothCoaster.jpg","congruent","m",603.396942,"f","f","left","(148, 362)",142,1,611.82802019628,14.9547811787363,"782.08",207,3,0,1
"pilot_12",20,"right","SHINEd_Cloud.jpg","congruent","n",849.241418,"j","j","right","(862, 362)",385,1,838.688611515914,241.81537249837,"874.61",65,4,1,1
"pilot_12",219,"right","SHINEd_Colander.jpg","incongruent","m",631.945182,"f","f","left","(862, 362)",41,1,643.614687582931,46.7414485653871,"1160.42",309,3,0,1
"pilot_12",39,"right","SHINEd_Collards.jpg","congruent","n",588.244916,"j","j","right","(862, 362)",445,1,579.81383780372,-17.0594012138241,"2165.66",76,3,0,1
"pilot_12",54,"right","SHINEd_Corn.jpg","congruent","n",523.609202,"j","j","right","(862, 362)",337,1,516.853172451987,-80.0200665655565,"8381.1",205,2,1,NA
"pilot_12",186,"left","SHINEd_Cranberry.jpg","incongruent","n",683.696174,"j","j","right","(148, 362)",398,1,691.680572556742,94.8073335391984,"1036.77",184,3,0,1
"pilot_12",58,"right","SHINEd_Crown.jpg","incongruent","m",699.640607,"f","f","left","(862, 362)",193,1,693.331257091525,96.4580180739815,"757.47",143,4,1,1
"pilot_12",93,"left","SHINEd_Currants.jpg","incongruent","n",628.21629,"j","j","right","(148, 362)",254,1,625.815386937483,28.9421479199392,"1432.12",276,4,1,1
"pilot_12",195,"right","SHINEd_DeepFryer.jpg","incongruent","m",582.169471,"f","f","left","(862, 362)",161,1,591.158898745703,-5.71434027184105,"937.07",278,4,0,1
"pilot_12",124,"right","SHINEd_DentalFloss.jpg","incongruent","m",515.467174,"f","f","left","(862, 362)",117,1,516.528038143903,-80.3452008736411,"837.64",432,1,0,NA
"pilot_12",220,"left","SHINEd_Deodorant.jpg","congruent","m",906.83475,"f","f","left","(148, 362)",118,1,918.615925492815,321.742686475272,"1254.76",45,4,1,1
"pilot_12",146,"right","SHINEd_Desk_School.jpg","incongruent","m",534.131786,"f","f","left","(862, 362)",201,1,537.649388161362,-59.2238508561819,"902.51",322,4,1,1
"pilot_12",128,"right","SHINEd_Dice.jpg","incongruent","m",378.615672,"f","f","left","(862, 362)",89,1,380.123215783441,-216.750023234103,"878.53",366,3,0,1
"pilot_12",212,"right","SHINEd_DogHouse.jpg","incongruent","m",545.964861,"f","f","left","(862, 362)",165,1,556.852677213739,-40.0205618038044,"1349.96",216,3,0,1
"pilot_12",95,"left","SHINEd_Dog_Bulldog.jpg","incongruent","n",709.029569,"j","j","right","(148, 362)",326,1,706.852005757252,109.978766739708,"1154.87",137,4,1,1
"pilot_12",64,"right","SHINEd_Dog_ChowChow.jpg","congruent","n",603.034515,"j","j","right","(862, 362)",369,1,597.395184550832,0.521945533288601,"1329.25",117,3,1,1
"pilot_12",60,"left","SHINEd_Dog_CockerSpaniel.jpg","incongruent","n",708.731844,"j","j","right","(148, 362)",306,1,702.645833911294,105.772594893751,"1352.72",34,3,0,1
"pilot_12",133,"right","SHINEd_DoorKnob.jpg","incongruent","m",648.077168,"f","f","left","(862, 362)",53,1,650.143061332863,53.2698223153195,"996.65",406,3,0,1
"pilot_12",76,"left","SHINEd_Door_Green.jpg","congruent","m",582.338991,"f","f","left","(148, 362)",106,1,578.039699469446,-18.8335395480974,"1159.59",159,3,1,1
"pilot_12",216,"left","SHINEd_Dragonfly.jpg","incongruent","n",698.416324,"j","j","right","(148, 362)",346,1,709.750819853277,112.877580835734,"944.05",238,4,1,1
"pilot_12",97,"left","SHINEd_Drill.jpg","congruent","m",589.651387,"f","f","left","(148, 362)",30,1,587.697163577021,-9.17607544052274,"1085",267,3,0,1
"pilot_12",121,"right","SHINEd_Drum_Bongos.jpg","incongruent","m",582.518165,"f","f","left","(862, 362)",9,1,583.244019414249,-13.6292196032946,"1445.89",403,3,0,1
"pilot_12",131,"left","SHINEd_DustPan.jpg","congruent","m",575.084136,"f","f","left","(148, 362)",54,1,576.926689513094,-19.9465495044496,"1053.63",386,2,1,NA
"pilot_12",201,"left","SHINEd_ElectricOutlet.jpg","congruent","m",532.967134,"f","f","left","(148, 362)",102,1,542.62658120501,-54.2466578125341,"1751.3",399,2,0,NA
"pilot_12",28,"right","SHINEd_Elephant.jpg","congruent","n",559.064656,"j","j","right","(862, 362)",349,1,549.40520879499,-47.4680302225537,"725.84",155,4,1,1
"pilot_12",10,"right","SHINEd_Escalator.jpg","incongruent","m",678.153532,"f","f","left","(862, 362)",177,1,666.484026417069,69.6107873995252,"1199.49",83,4,1,1
"pilot_12",168,"left","SHINEd_Feet.jpg","incongruent","n",536.071554,"f","j","right","(148, 362)",310,0,542.045894178821,-54.8273448387228,"983.2",425,3,1,1
"pilot_12",83,"right","SHINEd_FileDivider.jpg","incongruent","m",618.717717,"f","f","left","(862, 362)",69,1,615.200114838638,18.3268758210942,"1369.12",128,4,1,1
"pilot_12",200,"right","SHINEd_Fish_Rockbass.jpg","congruent","n",688.016483,"j","j","right","(862, 362)",341,1,697.564260295125,100.691021277581,"847.95",71,3,0,1
"pilot_12",90,"left","SHINEd_Flamingo_Real.jpg","incongruent","n",558.831578,"j","j","right","(148, 362)",406,1,556.09566520783,-40.7775738097142,"838.23",315,4,1,1
"pilot_12",78,"left","SHINEd_Flashlight.jpg","congruent","m",549.557988,"f","f","left","(148, 362)",98,1,545.482036289215,-51.3912027283283,"1790.51",72,2,1,NA
"pilot_12",157,"right","SHINEd_FlipFlop_PairBlue.jpg","incongruent","m",722.922509,"f","f","left","(862, 362)",153,1,727.668480170091,130.795241152548,"966.65",147,1,0,NA
"pilot_12",16,"left","SHINEd_Fruit_Orange.jpg","incongruent","n",553.394894,"j","j","right","(148, 362)",302,1,542.395407876376,-54.4778311411678,"1731.22",80,3,1,1
"pilot_12",80,"left","SHINEd_Fryingpan.jpg","congruent","m",566.822723,"f","f","left","(148, 362)",158,1,562.970111108984,-33.9031279085594,"1144.16",254,3,1,1
"pilot_12",112,"right","SHINEd_Gametable_AirHockey.jpg","incongruent","m",578.267087,"f","f","left","(862, 362)",85,1,577.987912225289,-18.8853267922552,"3201.8",124,3,1,1
"pilot_12",193,"left","SHINEd_Gecko.jpg","incongruent","n",647.102062,"j","j","right","(148, 362)",370,1,655.868149925934,58.9949109083899,"1136.04",247,3,1,1
"pilot_12",196,"right","SHINEd_Giraffe.jpg","congruent","n",642.463131,"j","j","right","(862, 362)",381,1,651.564228655587,54.6909896380434,"771.5",261,4,1,1
"pilot_12",181,"left","SHINEd_Glove_Rubber.jpg","congruent","m",693.915802,"f","f","left","(148, 362)",138,1,701.34185100732,104.468611989776,"824.81",398,2,1,NA
"pilot_12",34,"right","SHINEd_Gloves_WhiteKnit.jpg","incongruent","m",750.126037,"f","f","left","(862, 362)",197,1,741.136609254297,144.263370236753,"780.54",138,4,1,1
"pilot_12",4,"left","SHINEd_Goat.jpg","incongruent","n",639.108481,"j","j","right","(148, 362)",322,1,626.768955957762,29.8957169402181,"983.45",389,3,1,1
"pilot_12",147,"right","SHINEd_Gorilla.jpg","congruent","n",538.92601,"j","j","right","(862, 362)",285,1,542.555282071246,-54.3179569462974,"1360.21",53,4,1,1
"pilot_12",103,"left","SHINEd_Grape.jpg","incongruent","n",659.081935,"f","j","right","(148, 362)",274,0,657.797731036328,60.9244920187844,"781.67",420,3,1,1
"pilot_12",29,"right","SHINEd_Gum_Pack.jpg","incongruent","m",715.521426,"f","f","left","(862, 362)",77,1,705.973648704875,109.100409687331,"931.09",409,3,1,1
"pilot_12",183,"left","SHINEd_HairClip.jpg","congruent","m",671.085962,"f","f","left","(148, 362)",194,1,678.735350827089,81.8621118095448,"885.74",392,3,1,1
"pilot_12",100,"right","SHINEd_HairDryer.jpg","incongruent","m",622.453386,"f","f","left","(862, 362)",45,1,620.834172306675,23.9609332891308,"1542.4",30,4,1,1
"pilot_12",177,"right","SHINEd_Hat_Baseball.jpg","incongruent","m",758.028326,"f","f","left","(862, 362)",189,1,765.007695367782,168.134456350238,"2263.8",169,2,0,NA
"pilot_12",223,"left","SHINEd_Heater_Outdoor.jpg","congruent","m",519.19641,"f","f","left","(148, 362)",170,1,531.312595222469,-65.5606437950749,"1038.74",347,3,1,1
"pilot_12",217,"left","SHINEd_Helmet_Bicycle.jpg","congruent","m",526.372354,"j","f","left","(148, 362)",18,0,537.818519763162,-59.054719254382,"974.72",453,4,1,1
"pilot_12",208,"right","SHINEd_HotWaterBottle.jpg","incongruent","m",584.966665,"f","f","left","(862, 362)",113,1,595.407801574201,-1.46543744334247,"1014.71",81,3,0,1
"pilot_12",180,"left","SHINEd_Hourglass.jpg","congruent","m",648.998999,"f","f","left","(148, 362)",110,1,656.313378097435,59.4401390798913,"1799.19",58,3,0,1
"pilot_12",69,"left","SHINEd_Jacket_Suit.jpg","congruent","m",783.276889,"f","f","left","(148, 362)",2,1,778.195908100255,181.322669082711,"1183.98",136,3,1,1
"pilot_12",26,"right","SHINEd_Jetski.jpg","incongruent","m",856.527024,"f","f","left","(862, 362)",181,1,846.644236975221,249.770997957677,"889.11",292,4,1,1
"pilot_12",6,"right","SHINEd_Kettle.jpg","incongruent","m",637.879942,"f","f","left","(862, 362)",157,1,625.763756777531,28.8905177599872,"774.71",197,3,0,1
"pilot_12",52,"left","SHINEd_Kite_Rainbow.jpg","congruent","m",555.313026,"f","f","left","(148, 362)",78,1,548.333656632218,-48.5395823853255,"1113.68",69,3,0,1
"pilot_12",211,"right","SHINEd_Knee.jpg","congruent","n",678.921176,"j","j","right","(862, 362)",309,1,689.697322303855,92.824083286311,"935.41",208,4,1,1
"pilot_12",24,"right","SHINEd_Knife_Camping.jpg","incongruent","m",735.937335,"f","f","left","(862, 362)",37,1,725.831208155452,128.957969137908,"1094.73",266,4,1,1
"pilot_12",170,"left","SHINEd_LawnMower.jpg","congruent","m",794.003449,"f","f","left","(148, 362)",46,1,800.20112899859,203.327889981046,"838.57",181,3,0,1
"pilot_12",204,"right","SHINEd_Leaf_Clover.jpg","congruent","n",383.802878,"j","j","right","(862, 362)",449,1,393.797334934663,-203.07590408288,"1086.88",32,4,1,1
"pilot_12",30,"right","SHINEd_Leek.jpg","congruent","n",743.059884,"j","j","right","(862, 362)",357,1,733.623776614759,136.750537597215,"783.22",297,4,1,1
"pilot_12",105,"right","SHINEd_Leg.jpg","congruent","n",691.397421,"f","j","right","(862, 362)",405,0,690.336556856097,93.4633178385533,"1317.58",417,3,1,1
"pilot_12",129,"left","SHINEd_LightHouse.jpg","congruent","m",503.372008,"f","f","left","(148, 362)",146,1,504.991221693325,-91.8820173242185,"1175.04",23,4,1,1
"pilot_12",120,"right","SHINEd_Lilypad.jpg","congruent","n",554.694078,"j","j","right","(862, 362)",413,1,555.308262504365,-41.5649765131791,"1118.59",426,4,1,1
"pilot_12",67,"left","SHINEd_Lips_Real.jpg","incongruent","n",798.782707,"f","j","right","(148, 362)",390,0,793.478386280486,196.605147262942,"846.41",404,4,1,1
"pilot_12",57,"left","SHINEd_Lipstick.jpg","congruent","m",368.197715,"f","f","left","(148, 362)",198,1,361.776695181641,-235.096543835903,"969.21",100,3,0,1
"pilot_12",11,"right","SHINEd_Lychee.jpg","congruent","n",586.952894,"j","j","right","(862, 362)",321,1,575.395058326954,-21.4781806905903,"1503.91",326,2,0,NA
"pilot_12",224,"left","SHINEd_Lynx.jpg","incongruent","n",589.15115,"j","j","right","(148, 362)",438,1,601.379005132353,4.50576611480963,"829.48",384,3,0,1
"pilot_12",96,"right","SHINEd_Magnifying_Glass.jpg","incongruent","m",523.172846,"f","f","left","(862, 362)",105,1,521.106952667137,-75.7662863504072,"758.74",232,1,0,NA
"pilot_12",110,"right","SHINEd_Makeup_Compact.jpg","incongruent","m",617.551368,"f","f","left","(862, 362)",121,1,617.04885340552,20.1756143879759,"928.12",307,3,1,1
"pilot_12",113,"right","SHINEd_Mango.jpg","congruent","n",541.600435,"j","j","right","(862, 362)",277,1,541.432930135173,-55.4403088823707,"1326.66",251,2,1,NA
"pilot_12",210,"left","SHINEd_Mask_HockeyGoalie.jpg","congruent","m",560.165223,"f","f","left","(148, 362)",126,1,570.82969939397,-26.0435396235735,"1335.87",27,4,1,1
"pilot_12",74,"right","SHINEd_Mattress.jpg","incongruent","m",590.401487,"f","f","left","(862, 362)",49,1,585.878855649677,-10.9943833678664,"1078.21",374,2,0,NA
"pilot_12",148,"right","SHINEd_Megaphone.jpg","incongruent","m",487.892449,"f","f","left","(862, 362)",101,1,491.633390981131,-105.239848036413,"1497.68",6,3,1,1
"pilot_12",221,"left","SHINEd_Mirror_Makeup.jpg","congruent","m",598.838187,"f","f","left","(148, 362)",122,1,610.7310324027,13.857793385156,"1558.82",456,4,1,1
"pilot_12",106,"right","SHINEd_Mitt_Oven.jpg","incongruent","m",742.423783,"f","f","left","(862, 362)",137,1,741.474588765982,144.601349748438,"1206.44",229,2,0,NA
"pilot_12",82,"left","SHINEd_MobilityScooter.jpg","congruent","m",565.438453,"f","f","left","(148, 362)",182,1,561.809180928753,-35.0640580887904,"1173.5",371,3,0,1
"pilot_12",8,"right","SHINEd_MusicSheet.jpg","incongruent","m",773.852976,"f","f","left","(862, 362)",13,1,761.9601305973,165.086891579756,"950.71",146,4,1,1
"pilot_12",84,"left","SHINEd_Nail.jpg","congruent","m",616.633536,"f","f","left","(148, 362)",38,1,613.227603748523,16.3543647309787,"1177.16",408,1,0,NA
"pilot_12",182,"left","SHINEd_Nuts_Pecan.jpg","incongruent","n",634.752944,"j","j","right","(148, 362)",246,1,642.290662917204,45.4174238996603,"1639.51",237,2,1,NA
"pilot_12",209,"left","SHINEd_Nuts_Walnut.jpg","incongruent","n",516.867718,"j","j","right","(148, 362)",446,1,527.420524484086,-69.452714533458,"879.92",294,3,0,1
"pilot_12",46,"right","SHINEd_Oyster.jpg","congruent","n",859.914682,"j","j","right","(862, 362)",433,1,852.265293172911,255.392054155367,"750.93",269,4,1,1
"pilot_12",153,"right","SHINEd_Pacifier.jpg","incongruent","m",622.332881,"f","f","left","(862, 362)",81,1,626.632172530553,29.7589335130097,"1241.41",119,4,1,1
"pilot_12",184,"right","SHINEd_Pants_Firefighter.jpg","incongruent","m",756.524802,"f","f","left","(862, 362)",1,1,764.285860736973,167.412621719429,"877.83",452,2,0,NA
"pilot_12",107,"right","SHINEd_Paw.jpg","congruent","n",643.058126,"j","j","right","(862, 362)",301,1,642.220601675866,45.3473626583223,"1358.96",434,3,1,1
"pilot_12",15,"left","SHINEd_PencilSharpener.jpg","congruent","m",674.57875,"f","f","left","(148, 362)",74,1,663.467593966492,66.5943549489477,"1278.62",367,1,0,NA
"pilot_12",62,"left","SHINEd_PictureFrame.jpg","congruent","m",627.728416,"f","f","left","(148, 362)",222,1,621.865745731063,24.9925067135196,"862.55",335,3,0,1
"pilot_12",33,"right","SHINEd_Pineapple.jpg","congruent","n",491.723509,"j","j","right","(862, 362)",353,1,482.622411344413,-114.250827673131,"710.21",244,4,1,1
"pilot_12",101,"left","SHINEd_Pumpkin.jpg","incongruent","n",683.594539,"j","j","right","(148, 362)",294,1,682.086995216559,85.2137561990153,"781.17",255,4,1,1
"pilot_12",134,"right","SHINEd_Quartz.jpg","congruent","n",523.722445,"j","j","right","(862, 362)",401,1,525.900008242748,-70.973230774796,"1078.61",413,4,1,1
"pilot_12",14,"left","SHINEd_Radish.jpg","incongruent","n",648.61811,"f","j","right","(148, 362)",242,0,637.395284056607,40.5220450390632,"1526.01",177,2,1,NA
"pilot_12",44,"left","SHINEd_RamAnimal.jpg","incongruent","n",556.060968,"j","j","right","(148, 362)",454,1,548.188239353142,-48.6849996644016,"928.17",96,3,0,1
"pilot_12",63,"right","SHINEd_RecordPlayer.jpg","incongruent","m",598.356195,"f","f","left","(862, 362)",149,1,592.605194640948,-4.268044376596,"836.51",449,3,1,1
"pilot_12",75,"left","SHINEd_RollerBlade.jpg","congruent","m",715.66622,"f","f","left","(148, 362)",178,1,711.255258559562,114.382019542018,"795.59",343,3,0,1
"pilot_12",166,"right","SHINEd_Ruler_Wooden.jpg","incongruent","m",505.719325,"f","f","left","(862, 362)",73,1,511.470325359052,-85.4029136584918,"1150.55",236,3,0,1
"pilot_12",108,"right","SHINEd_Saw.jpg","incongruent","m",623.992635,"f","f","left","(862, 362)",33,1,623.266780585751,26.3935415682068,"1000.26",382,3,1,1
"pilot_12",118,"left","SHINEd_Scooter.jpg","congruent","m",545.519879,"f","f","left","(148, 362)",174,1,545.910723684596,-50.9625153329482,"1065.19",196,3,0,1
"pilot_12",136,"left","SHINEd_Seashell_BayScallop.jpg","incongruent","n",515.605239,"j","j","right","(148, 362)",270,1,518.006142062517,-78.867096955027,"1064.26",323,3,0,1
"pilot_12",188,"right","SHINEd_ShoppingCart.jpg","incongruent","m",587.648626,"f","f","left","(862, 362)",109,1,595.856364376511,-1.0168746410326,"1029.02",194,3,1,1
"pilot_12",215,"right","SHINEd_Skates.jpg","incongruent","m",630.471186,"f","f","left","(862, 362)",125,1,641.694011943393,44.820772925849,"2415.86",109,2,1,NA
"pilot_12",36,"left","SHINEd_SkullDeer.jpg","incongruent","n",757.746919,"j","j","right","(148, 362)",278,1,748.980831074066,152.107592056522,"1807.64",3,3,1,1
"pilot_12",156,"left","SHINEd_Slide.jpg","congruent","m",423.377889,"f","f","left","(148, 362)",82,1,428.012190260207,-168.861048757337,"879.78",318,4,1,1
"pilot_12",92,"left","SHINEd_Slippers.jpg","congruent","m",632.25064,"f","f","left","(148, 362)",154,1,629.738067027599,32.8648280100547,"1198.44",301,4,1,1
"pilot_12",109,"right","SHINEd_Snail.jpg","congruent","n",644.767781,"j","j","right","(862, 362)",241,1,644.153596495635,47.2803574780914,"1791.37",243,2,1,NA
"pilot_12",22,"left","SHINEd_Starfish.jpg","incongruent","n",704.114333,"j","j","right","(148, 362)",378,1,693.784866335683,96.9116273181393,"704.3",142,4,1,1
"pilot_12",49,"left","SHINEd_Swing_Child.jpg","congruent","m",597.267064,"f","f","left","(148, 362)",166,1,589.952684902565,-6.92055411497905,"1056.33",28,4,1,1
"pilot_12",189,"right","SHINEd_Switch_LightWhite.jpg","incongruent","m",624.106701,"f","f","left","(862, 362)",57,1,632.426109286396,35.5528702688519,"853.63",381,4,1,1
"pilot_12",167,"left","SHINEd_Teapot.jpg","congruent","m",639.151071,"f","f","left","(148, 362)",214,1,645.013741268937,48.1405022513927,"887.98",55,4,1,1
"pilot_12",176,"left","SHINEd_TissueBox.jpg","congruent","m",0,".","f","left","(148, 362)",50,0,6.86769945789717,-590.005539559647,"1455.07",191,3,0,1
"pilot_12",151,"right","SHINEd_Toad.jpg","congruent","n",531.709373,"j","j","right","(862, 362)",441,1,535.785324710784,-61.0879143067594,"1029.49",357,4,1,1
"pilot_12",143,"left","SHINEd_Tomato.jpg","incongruent","n",402.386555,"j","j","right","(148, 362)",450,1,405.569147431708,-191.304091585835,"1096.93",54,4,1,1
"pilot_12",27,"right","SHINEd_Tree_Fir.jpg","congruent","n",708.032275,"j","j","right","(862, 362)",229,1,698.261157885106,101.387918867562,"993.09",121,4,1,1
"pilot_12",99,"right","SHINEd_Turtle.jpg","congruent","n",701.121701,"j","j","right","(862, 362)",305,1,699.39081739679,102.517578379246,"1295.4",22,4,1,1
"pilot_12",171,"left","SHINEd_USBKey.jpg","congruent","m",741.930783,"f","f","left","(148, 362)",90,1,748.240132908475,151.366893890931,"823.36",308,4,1,1
"pilot_12",65,"right","SHINEd_Vase_Decorative copy.jpg","incongruent","m",694.625343,"f","f","left","(862, 362)",221,1,689.097682460717,92.2244434431731,"790.39",442,4,0,1
"pilot_12",163,"right","SHINEd_Vest.jpg","incongruent","m",573.354429,"f","f","left","(862, 362)",5,1,578.770419629398,-18.1028193881453,"1292.71",163,4,1,1
"pilot_12",114,"right","SHINEd_WatermelonSlice.jpg","congruent","n",407.667228,"j","j","right","(862, 362)",325,1,407.611393045058,-189.261845972486,"1637.99",68,3,1,1
"pilot_12",87,"left","SHINEd_Weights_Dumbells.jpg","congruent","m",852.476067,"f","f","left","(148, 362)",22,1,849.405144478176,252.531905460632,"1199.48",257,4,1,1
"pilot_12",68,"right","SHINEd_Wheel_Steering.jpg","incongruent","m",683.12386,"f","f","left","(862, 362)",185,1,677.93120919037,81.0579701728266,"920.06",126,3,0,1
"pilot_12",41,"left","SHINEd_accordion.jpg","congruent","m",0,".","f","left","(148, 362)",10,0,-8.2077383765112,-605.080977394055,"1207.23",293,3,0,1
"pilot_12",149,"left","SHINEd_airpump.jpg","congruent","m",459.121937,"f","f","left","(148, 362)",114,1,462.974548891015,-133.898690126528,"1886.32",230,3,0,1
"pilot_12",21,"left","SHINEd_antlers.jpg","incongruent","n",0,".","j","right","(148, 362)",418,0,-10.4411365742013,-607.314375591745,"752.07",279,4,1,1
"pilot_12",7,"right","SHINEd_artichoke.jpg","congruent","n",666.865015,"j","j","right","(862, 362)",453,1,654.860499687415,57.9872606698716,"975.79",331,2,0,NA
"pilot_12",228,"left","SHINEd_avocado.jpg","incongruent","n",682.384095,"j","j","right","(148, 362)",394,1,695.058629771891,98.1853907543476,"904.34",401,3,1,1
"pilot_12",206,"left","SHINEd_brownbeans.jpg","incongruent","n",544.421457,"j","j","right","(148, 362)",366,1,554.639253754432,-42.2339852631115,"1462.87",67,4,1,1
"pilot_12",94,"right","SHINEd_brusselsprouts.jpg","congruent","n",649.842388,"j","j","right","(862, 362)",265,1,647.553154847368,50.6799158298238,"863.65",99,4,1,1
"pilot_12",71,"right","SHINEd_catcus.jpg","congruent","n",553.178463,"j","j","right","(862, 362)",313,1,548.320821920024,-48.5524170975199,"829.72",227,3,1,1
"pilot_12",111,"right","SHINEd_catfish.jpg","congruent","n",0,".","j","right","(862, 362)",361,0,-0.390844684595777,-597.26408370214,"1511.66",372,4,1,1
"pilot_12",197,"right","SHINEd_cheetah.jpg","congruent","n",590.236759,"j","j","right","(862, 362)",245,1,599.449526565472,2.57628754792793,"1583.31",370,2,1,NA
"pilot_12",164,"right","SHINEd_cottonplant.jpg","congruent","n",569.041392,"j","j","right","(862, 362)",297,1,574.569052539283,-22.3041864782608,"1952.19",302,3,1,1
"pilot_12",138,"left","SHINEd_couch.jpg","congruent","m",556.230487,"f","f","left","(148, 362)",202,1,558.854729882286,-38.0185091352579,"1133",211,3,1,1
"pilot_12",3,"right","SHINEd_dinosaur fossil.jpg","congruent","n",539.7103,"j","j","right","(862, 362)",377,1,527.259105047877,-69.6141339696664,"1142.12",189,3,1,1
"pilot_12",198,"left","SHINEd_discoball.jpg","congruent","m",600.952742,"f","f","left","(148, 362)",226,1,610.277179475356,13.4039404578124,"903.94",130,3,1,1
"pilot_12",155,"right","SHINEd_donkey.jpg","congruent","n",532.745022,"j","j","right","(862, 362)",409,1,537.267653350322,-59.6055856672214,"870.66",338,3,1,1
"pilot_12",13,"right","SHINEd_dragonfruit.jpg","congruent","n",484.113111,"j","j","right","(862, 362)",437,1,472.778615146723,-124.094623870821,"1183.72",164,3,1,1
"pilot_12",81,"left","SHINEd_durian.jpg","incongruent","n",650.408707,"j","j","right","(148, 362)",374,1,646.667765018869,49.7945260013252,"1725.4",391,1,0,NA
"pilot_12",218,"left","SHINEd_eucalyptus.jpg","incongruent","n",802.247607,"f","j","right","(148, 362)",282,0,813.805442673046,216.932203655503,"871.71",112,3,0,1
"pilot_12",47,"right","SHINEd_fountain.jpg","incongruent","m",600.693398,"f","f","left","(862, 362)",169,1,593.155679082796,-3.71755993474807,"1013.56",174,4,1,1
"pilot_12",130,"left","SHINEd_fox.jpg","incongruent","n",458.829221,"j","j","right","(148, 362)",334,1,460.56010460321,-136.313134414334,"672.97",304,3,1,1
"pilot_12",162,"right","SHINEd_frog.jpg","congruent","n",528.934415,"j","j","right","(862, 362)",345,1,534.238735719514,-62.6345032980299,"895.01",333,3,1,1
"pilot_12",142,"right","SHINEd_goldenberry.jpg","congruent","n",510.369502,"j","j","right","(862, 362)",397,1,513.440424521824,-83.4328144957199,"1360.19",15,3,1,1
"pilot_12",115,"left","SHINEd_grasshopper.jpg","incongruent","n",612.131032,"j","j","right","(148, 362)",286,1,612.186866954942,15.3136279373984,"673.16",97,4,1,1
"pilot_12",70,"left","SHINEd_greenapple.jpg","incongruent","n",564.270158,"j","j","right","(148, 362)",410,1,559.300847010139,-37.5723920074044,"1023.26",270,3,0,1
"pilot_12",12,"left","SHINEd_honeydew.jpg","incongruent","n",559.30441,"j","j","right","(148, 362)",330,1,547.858244236838,-49.0149947807058,"919.86",104,1,1,NA
"pilot_12",203,"right","SHINEd_horse.jpg","congruent","n",427.841314,"j","j","right","(862, 362)",269,1,437.724101024779,-159.149137992765,"1209.92",360,2,0,NA
"pilot_12",1,"left","SHINEd_hyena.jpg","incongruent","n",0,".","j","right","(148, 362)",422,0,-12.6745347718938,-609.547773789438,"1260.88",202,3,0,1
"pilot_12",51,"right","SHINEd_koala.jpg","congruent","n",511.425714,"j","j","right","(862, 362)",365,1,504.334674722334,-92.53856429521,"1302.62",359,3,1,1
"pilot_12",213,"left","SHINEd_ladybug.jpg","incongruent","n",605.892075,"j","j","right","(148, 362)",238,1,616.891561123624,20.01832210608,"1046.87",50,4,1,1
"pilot_12",119,"left","SHINEd_lotusroot.jpg","incongruent","n",693.805355,"j","j","right","(148, 362)",298,1,694.30786959448,97.4346305769364,"943.95",268,4,1,1
"pilot_12",141,"left","SHINEd_manatee.jpg","incongruent","n",546.30319,"j","j","right","(148, 362)",342,1,549.262442611939,-47.6107964056045,"1279.5",42,3,0,1
"pilot_12",43,"right","SHINEd_mizuna.jpg","congruent","n",608.576189,"j","j","right","(862, 362)",429,1,600.591790443258,3.71855142571391,"919.54",345,2,0,NA
"pilot_12",159,"right","SHINEd_mosquito.jpg","congruent","n",484.752427,"j","j","right","(862, 362)",393,1,489.72173798986,-107.151501027683,"758.84",412,4,1,1
"pilot_12",126,"left","SHINEd_mushroom_other.jpg","incongruent","n",466.594046,"j","j","right","(148, 362)",426,1,467.878249963672,-128.994989053872,"846.37",444,1,0,NA
"pilot_12",102,"right","SHINEd_okapi.jpg","congruent","n",599.586114,"j","j","right","(862, 362)",425,1,598.190240126444,1.31700110889975,"5911.53",1,3,1,1
"pilot_12",35,"right","SHINEd_orchid.jpg","congruent","n",891.589982,"j","j","right","(862, 362)",261,1,882.712224164182,285.838985146638,"805.68",358,3,1,1
"pilot_12",205,"left","SHINEd_peacockfeather.jpg","incongruent","n",604.690896,"j","j","right","(148, 362)",382,1,614.797022844548,17.9237838270039,"975",337,4,1,1
"pilot_12",37,"right","SHINEd_pickle.jpg","congruent","n",587.835289,"j","j","right","(862, 362)",373,1,579.180870983951,-17.6923680335931,"1174.37",369,3,1,1
"pilot_12",66,"right","SHINEd_platypus.jpg","congruent","n",659.510679,"j","j","right","(862, 362)",293,1,654.094688370601,57.2214493530575,"782.07",342,4,1,1
"pilot_12",55,"left","SHINEd_pomegrant.jpg","incongruent","n",503.68591,"j","j","right","(148, 362)",354,1,497.041550361872,-99.831688655672,"837.94",303,3,0,1
"pilot_12",175,"right","SHINEd_pumpkinseeds-.jpg","congruent","n",652.060429,"j","j","right","(862, 362)",237,1,658.816458548013,61.9432195304688,"774.39",170,3,1,1
"pilot_12",145,"left","SHINEd_purple_yam.jpg","incongruent","n",716.352869,"j","j","right","(148, 362)",442,1,719.758801251478,122.885562233934,"1366.94",144,4,1,1
"pilot_12",61,"left","SHINEd_rabbitt.jpg","incongruent","n",687.361937,"j","j","right","(148, 362)",350,1,681.387596821179,84.5143578036351,"1143.48",51,3,1,1
"pilot_12",72,"left","SHINEd_raccoon.jpg","incongruent","n",556.905524,"j","j","right","(148, 362)",262,1,552.159552829908,-44.7136861876354,"1823.15",118,3,0,1
"pilot_12",202,"left","SHINEd_red_Cabbage.jpg","incongruent","n",585.678187,"j","j","right","(148, 362)",230,1,595.449304114894,-1.42393490264956,"1015.75",148,4,1,1
"pilot_12",178,"right","SHINEd_red_panda.jpg","congruent","n",616.69489,"j","j","right","(862, 362)",273,1,623.785929277666,26.9126902601223,"1247.74",37,4,1,1
"pilot_12",185,"right","SHINEd_rhino horn.jpg","congruent","n",792.328739,"j","j","right","(862, 362)",249,1,800.201467646858,203.328228629314,"694.05",248,4,1,1
"pilot_12",158,"left","SHINEd_rose.jpg","incongruent","n",600.081678,"j","j","right","(148, 362)",430,1,604.939319079976,8.06608006243217,"798.03",63,4,1,1
"pilot_12",152,"left","SHINEd_scallion.jpg","incongruent","n",521.294839,"j","j","right","(148, 362)",314,1,525.482460620669,-71.3907783968749,"788.66",419,4,1,1
"pilot_12",192,"left","SHINEd_skeleton-lizard.jpg","incongruent","n",642.405398,"j","j","right","(148, 362)",250,1,651.059816016049,54.1865769985054,"1230.79",40,4,1,1
"pilot_12",227,"left","SHINEd_skunk.jpg","incongruent","n",567.560549,"j","j","right","(148, 362)",290,1,580.123413862007,-16.7498251555368,"767.82",249,4,1,1
"pilot_12",17,"right","SHINEd_soil.jpg","congruent","n",581.414721,"j","j","right","(862, 362)",289,1,570.526904786261,-26.3463342312833,"1110.56",91,4,1,1
"pilot_12",85,"left","SHINEd_spinach.jpg","incongruent","n",620.240948,"j","j","right","(148, 362)",266,1,616.946685658407,20.0734466408632,"1901.77",311,3,0,1
"pilot_12",89,"right","SHINEd_starfruit.jpg","congruent","n",612.041284,"j","j","right","(862, 362)",317,1,609.193701297945,12.3204622804012,"2088.48",12,4,1,1
"pilot_12",161,"left","SHINEd_treestump.jpg","incongruent","n",581.179729,"j","j","right","(148, 362)",414,1,586.372379809629,-10.5008592079144,"1864.06",38,2,0,NA
"pilot_12",59,"right","SHINEd_vanillabean copy.jpg","congruent","n",665.377869,"j","j","right","(862, 362)",329,1,659.18018900141,62.306949983866,"1662.03",206,3,1,1
"pilot_12",32,"left","SHINEd_volcano copy.jpg","incongruent","n",685.468117,"j","j","right","(148, 362)",234,1,676.255349434528,79.3821104169843,"1032.85",25,4,1,1
"pilot_12",132,"right","SHINEd_whale.jpg","congruent","n",532.568471,"j","j","right","(862, 362)",421,1,534.522694422979,-62.350544594565,"1167.86",105,3,1,1
"pilot_12",98,"left","SHINEd_wheat_stock.jpg","incongruent","n",608.895909,"j","j","right","(148, 362)",358,1,607.053355486906,10.1801164693617,"926.76",332,2,0,NA
"pilot_12",140,"right","SHINEd_white_strawberries.jpg","congruent","n",548.16425,"j","j","right","(862, 362)",417,1,551.011832702055,-45.8614063154889,"781.33",86,4,1,1
"pilot_12",150,"right","SHINEd_worm.jpg","congruent","n",655.428851,"j","j","right","(862, 362)",389,1,659.3931328009,62.5198937833561,"648.91",156,4,1,1
