"participant","trial_index","screenposition","stimulus","trialtype","classifyenc","rt","response","responsecorrect","responsecorrect_side","screenlocation","stimnum","acc","rtResidual","rtResidualC","rt_rec","trialno_rec","ratingConfidence","acc_rec","memoryHits.hc"
"pilot3_9",97,"right","SHINEd_Ball_Basketball.jpg","congruent","m",705.191116,"j","j","right","(862, 362)",130,1,705.11616225153,82.4279679006528,NA,NA,NA,NA,NA
"pilot3_9",23,"right","SHINEd_Ball_Bowling.jpg","congruent","m",0,".","j","right","(862, 362)",134,0,-0.391901027713971,-623.080095378591,NA,NA,NA,NA,NA
"pilot3_9",21,"left","SHINEd_BasketballHoop.jpg","incongruent","m",576.893868,"j","j","right","(148, 362)",129,1,576.493400829604,-46.1947935212735,NA,NA,NA,NA,NA
"pilot3_9",109,"right","SHINEd_Bathtub.jpg","congruent","m",586.047738,"j","j","right","(862, 362)",58,1,586.024181107624,-36.6640132432535,NA,NA,NA,NA,NA
"pilot3_9",6,"right","SHINEd_BearPolar.jpg","incongruent","n",538.314281,"f","f","left","(862, 362)",386,1,537.849567759487,-84.8386265913905,NA,NA,NA,NA,NA
"pilot3_9",116,"right","SHINEd_Beater_Electric.jpg","congruent","m",545.784832,"j","j","right","(862, 362)",42,1,545.791256607012,-76.8969377438655,NA,NA,NA,NA,NA
"pilot3_9",205,"left","SHINEd_Bells_Christmas.jpg","incongruent","m",656.013896,"j","j","right","(148, 362)",225,1,656.401513956373,33.7133196054957,NA,NA,NA,NA,NA
"pilot3_9",200,"right","SHINEd_Bench_Black.jpg","congruent","m",552.017997,"j","j","right","(862, 362)",206,1,552.384199599667,-70.30399475121,NA,NA,NA,NA,NA
"pilot3_9",31,"left","SHINEd_BicycleChain.jpg","incongruent","m",669.124222,"j","j","right","(148, 362)",17,1,668.766585543015,46.0783911921379,NA,NA,NA,NA,NA
"pilot3_9",159,"right","SHINEd_Bicycle_Kids.jpg","congruent","m",552.158502,"j","j","right","(862, 362)",26,1,552.349098674681,-70.3390956761966,NA,NA,NA,NA,NA
"pilot3_9",179,"left","SHINEd_Binder.jpg","incongruent","m",674.94374,"j","j","right","(148, 362)",65,1,675.219998101503,52.5318037506261,NA,NA,NA,NA,NA
"pilot3_9",211,"left","SHINEd_Bird_Eagle.jpg","congruent","n",554.570637,"f","f","left","(148, 362)",257,1,554.98395338442,-67.7042409664575,NA,NA,NA,NA,NA
"pilot3_9",84,"left","SHINEd_Bird_Parrot.jpg","congruent","n",524.399664,"f","f","left","(148, 362)",233,1,524.269030324095,-98.4191640267819,NA,NA,NA,NA,NA
"pilot3_9",199,"right","SHINEd_Bird_Pelican.jpg","incongruent","n",507.283817,"f","f","left","(862, 362)",402,1,507.645736528326,-115.042457822551,NA,NA,NA,NA,NA
"pilot3_9",153,"left","SHINEd_Bleachers.jpg","incongruent","m",715.570199,"j","j","right","(148, 362)",133,1,715.735097246634,93.0469028957565,NA,NA,NA,NA,NA
"pilot3_9",92,"right","SHINEd_Boardgame_Chess.jpg","congruent","m",0,".","j","right","(862, 362)",86,0,-0.0963691051755404,-622.784563456053,NA,NA,NA,NA,NA
"pilot3_9",182,"left","SHINEd_Boat_Colourful.jpg","incongruent","m",545.820095,"j","j","right","(148, 362)",173,1,546.109202315527,-76.5789920353504,NA,NA,NA,NA,NA
"pilot3_9",171,"right","SHINEd_Boot_Rain.jpg","congruent","m",634.624209,"j","j","right","(862, 362)",150,1,634.866202530774,12.178008179897,NA,NA,NA,NA,NA
"pilot3_9",202,"left","SHINEd_Bottle_Beer.jpg","incongruent","m",593.710333,"j","j","right","(148, 362)",213,1,594.085101742349,-28.6030926085278,NA,NA,NA,NA,NA
"pilot3_9",161,"left","SHINEd_Bottle_Blue.jpg","incongruent","m",528.90111,"j","j","right","(148, 362)",217,1,529.100272817363,-93.5879215335143,NA,NA,NA,NA,NA
"pilot3_9",40,"right","SHINEd_Bowl_Fruits.jpg","incongruent","n",862.459894,"f","f","left","(862, 362)",434,1,862.140805185085,239.452610834208,NA,NA,NA,NA,NA
"pilot3_9",115,"left","SHINEd_Bowl_Wooden.jpg","incongruent","m",562.934373,"j","j","right","(148, 362)",141,1,562.936514535671,-59.7516798152066,NA,NA,NA,NA,NA
"pilot3_9",184,"left","SHINEd_BowlingPin.jpg","incongruent","m",689.954001,"j","j","right","(148, 362)",25,1,690.251674458209,67.5634801073317,NA,NA,NA,NA,NA
"pilot3_9",73,"right","SHINEd_Box_Notepaper.jpg","congruent","m",837.889651,"f","j","right","(862, 362)",70,0,837.711903539343,215.023709188466,NA,NA,NA,NA,NA
"pilot3_9",107,"left","SHINEd_Branch.jpg","congruent","n",793.624175,"j","f","left","(148, 362)",333,0,793.592051964941,170.903857614064,NA,NA,NA,NA,NA
"pilot3_9",54,"right","SHINEd_Briefcase_Leather.jpg","congruent","m",535.285684,"j","j","right","(862, 362)",210,1,535.026558183861,-87.6616361670161,NA,NA,NA,NA,NA
"pilot3_9",25,"left","SHINEd_Broccoli.jpg","congruent","n",526.289291,"j","f","left","(148, 362)",253,0,525.905956114968,-96.7822382359089,NA,NA,NA,NA,NA
"pilot3_9",111,"right","SHINEd_Bucket_Rusty.jpg","congruent","m",661.218205,"j","j","right","(862, 362)",34,1,661.203214250306,38.5150198994288,NA,NA,NA,NA,NA
"pilot3_9",80,"right","SHINEd_Bugle.jpg","congruent","m",774.852146,"j","j","right","(862, 362)",14,1,774.704380038731,152.016185687853,NA,NA,NA,NA,NA
"pilot3_9",188,"left","SHINEd_BusStop.jpg","incongruent","m",643.583711,"j","j","right","(148, 362)",145,1,643.898516743574,21.2103223926963,NA,NA,NA,NA,NA
"pilot3_9",225,"right","SHINEd_Butterfly.jpg","incongruent","n",588.079502,"f","f","left","(862, 362)",318,1,588.552781383196,-34.1354129676815,NA,NA,NA,NA,NA
"pilot3_9",123,"left","SHINEd_Cabinet_Display.jpg","incongruent","m",503.296688,"j","j","right","(148, 362)",205,1,503.3330941064,-119.355100244478,NA,NA,NA,NA,NA
"pilot3_9",150,"right","SHINEd_Calculator.jpg","congruent","m",732.521106,"j","j","right","(862, 362)",94,1,732.67315503261,109.984960681733,NA,NA,NA,NA,NA
"pilot3_9",10,"left","SHINEd_Camera_Video.jpg","incongruent","m",491.016784,"j","j","right","(148, 362)",97,1,490.569203044851,-132.118991306026,NA,NA,NA,NA,NA
"pilot3_9",201,"right","SHINEd_Cane_Metal.jpg","congruent","m",716.489833,"f","j","right","(862, 362)",190,0,716.860318671008,94.1721243201311,NA,NA,NA,NA,NA
"pilot3_9",34,"left","SHINEd_Cannon.jpg","incongruent","m",507.234422,"j","j","right","(148, 362)",61,1,506.889634757038,-115.798559593839,NA,NA,NA,NA,NA
"pilot3_9",158,"right","SHINEd_Cantaloupe.jpg","incongruent","n",746.179394,"f","f","left","(862, 362)",338,1,746.365707603339,123.677513252462,NA,NA,NA,NA,NA
"pilot3_9",99,"right","SHINEd_Car_Vintage.jpg","congruent","m",569.604284,"j","j","right","(862, 362)",186,1,569.537896394212,-53.1502979566648,NA,NA,NA,NA,NA
"pilot3_9",148,"left","SHINEd_Carabiner_Orange.jpg","incongruent","m",660.159498,"j","j","right","(148, 362)",29,1,660.302980889928,37.6147865390508,NA,NA,NA,NA,NA
"pilot3_9",156,"left","SHINEd_Carrot.jpg","congruent","n",832.644941,"f","f","left","(148, 362)",281,1,832.822688460657,210.13449410978,NA,NA,NA,NA,NA
"pilot3_9",155,"right","SHINEd_CasketOpen.jpg","congruent","m",668.814302,"j","j","right","(862, 362)",218,1,668.987766389316,46.2995720384388,NA,NA,NA,NA,NA
"pilot3_9",119,"right","SHINEd_Cat.jpg","incongruent","n",505.280545,"f","f","left","(862, 362)",362,1,505.299818821035,-117.388375529842,NA,NA,NA,NA,NA
"pilot3_9",227,"left","SHINEd_ChainRusty.jpg","incongruent","m",540.574927,"j","j","right","(148, 362)",21,1,541.056772525878,-81.6314218249993,NA,NA,NA,NA,NA
"pilot3_9",166,"left","SHINEd_Chair_High.jpg","incongruent","m",526.530823,"j","j","right","(148, 362)",209,1,526.751401174069,-95.9367931768086,NA,NA,NA,NA,NA
"pilot3_9",17,"right","SHINEd_ChalkboardEraser.jpg","congruent","m",0,".","j","right","(862, 362)",62,0,-0.417599455760751,-623.105793806638,NA,NA,NA,NA,NA
"pilot3_9",52,"right","SHINEd_Cheesegrater_Handheld.jpg","congruent","m",686.715596,"j","j","right","(862, 362)",162,1,686.447904041179,63.7597096903017,NA,NA,NA,NA,NA
"pilot3_9",18,"right","SHINEd_Cherry.jpg","incongruent","n",710.940691,"f","f","left","(862, 362)",258,1,710.52737461558,87.8391802647031,NA,NA,NA,NA,NA
"pilot3_9",131,"right","SHINEd_Clarinet.jpg","congruent","m",609.053633,"j","j","right","(862, 362)",6,1,609.124303677129,-13.5638906737485,NA,NA,NA,NA,NA
"pilot3_9",137,"right","SHINEd_Clip_Paper.jpg","congruent","m",545.621301,"j","j","right","(862, 362)",66,1,545.717670105176,-76.9705242457016,NA,NA,NA,NA,NA
"pilot3_9",186,"left","SHINEd_Clock_Radio.jpg","incongruent","m",571.689926,"j","j","right","(148, 362)",93,1,571.996165600891,-50.6920287499859,NA,NA,NA,NA,NA
"pilot3_9",7,"right","SHINEd_ClothCoaster.jpg","congruent","m",421.034259,"j","j","right","(862, 362)",142,1,420.573828830828,-202.114365520049,NA,NA,NA,NA,NA
"pilot3_9",89,"left","SHINEd_Cloud.jpg","congruent","n",762.780464,"j","f","left","(148, 362)",385,0,762.671245680801,139.983051329924,NA,NA,NA,NA,NA
"pilot3_9",58,"left","SHINEd_Colander.jpg","incongruent","m",649.569458,"j","j","right","(148, 362)",41,1,649.327464469226,26.6392701183486,NA,NA,NA,NA,NA
"pilot3_9",43,"left","SHINEd_Collards.jpg","congruent","n",938.304715,"f","f","left","(148, 362)",445,1,937.998475399109,315.310281048231,NA,NA,NA,NA,NA
"pilot3_9",76,"left","SHINEd_Corn.jpg","congruent","n",576.522972,"j","f","left","(148, 362)",337,0,576.358073753366,-46.330120597511,NA,NA,NA,NA,NA
"pilot3_9",172,"right","SHINEd_Cranberry.jpg","incongruent","n",780.336888,"f","f","left","(862, 362)",398,1,780.583164602115,157.894970251238,NA,NA,NA,NA,NA
"pilot3_9",215,"left","SHINEd_Crown.jpg","incongruent","m",487.518126,"j","j","right","(148, 362)",193,1,487.948574669784,-134.739619681093,NA,NA,NA,NA,NA
"pilot3_9",112,"right","SHINEd_Currants.jpg","incongruent","n",551.919682,"f","f","left","(862, 362)",254,1,551.908974321647,-70.7792200292301,NA,NA,NA,NA,NA
"pilot3_9",208,"left","SHINEd_DeepFryer.jpg","incongruent","m",540.662897,"j","j","right","(148, 362)",161,1,541.063364170396,-81.6248301804809,NA,NA,NA,NA,NA
"pilot3_9",101,"left","SHINEd_DentalFloss.jpg","incongruent","m",836.635865,"j","j","right","(148, 362)",117,1,836.578043536895,213.889849186017,NA,NA,NA,NA,NA
"pilot3_9",144,"right","SHINEd_Deodorant.jpg","congruent","m",786.709941,"j","j","right","(862, 362)",118,1,786.836291604563,164.148097253686,NA,NA,NA,NA,NA
"pilot3_9",70,"left","SHINEd_Desk_School.jpg","incongruent","m",671.32484,"j","j","right","(148, 362)",201,1,671.134243325319,48.4460489744422,NA,NA,NA,NA,NA
"pilot3_9",218,"left","SHINEd_Dice.jpg","incongruent","m",502.93681,"j","j","right","(148, 362)",89,1,503.380107883808,-119.30808646707,NA,NA,NA,NA,NA
"pilot3_9",216,"left","SHINEd_DogHouse.jpg","incongruent","m",468.401515,"j","j","right","(148, 362)",165,1,468.836246741125,-153.851947609752,NA,NA,NA,NA,NA
"pilot3_9",110,"right","SHINEd_Dog_Bulldog.jpg","incongruent","n",574.802946,"f","f","left","(862, 362)",326,1,574.783672178965,-47.9045221719123,NA,NA,NA,NA,NA
"pilot3_9",127,"left","SHINEd_Dog_ChowChow.jpg","congruent","n",672.663315,"f","f","left","(148, 362)",369,1,672.716853391764,50.028659040887,NA,NA,NA,NA,NA
"pilot3_9",213,"right","SHINEd_Dog_CockerSpaniel.jpg","incongruent","n",465.073625,"f","f","left","(862, 362)",306,1,465.495507527102,-157.192686823775,NA,NA,NA,NA,NA
"pilot3_9",90,"left","SHINEd_DoorKnob.jpg","incongruent","m",703.411791,"j","j","right","(148, 362)",53,1,703.306855752142,80.6186614012649,NA,NA,NA,NA,NA
"pilot3_9",162,"right","SHINEd_Door_Green.jpg","congruent","m",951.516154,"j","j","right","(862, 362)",106,1,951.719599888704,329.031405537827,NA,NA,NA,NA,NA
"pilot3_9",206,"right","SHINEd_Dragonfly.jpg","incongruent","n",653.320506,"f","f","left","(862, 362)",346,1,653.712407027714,31.0242126768368,NA,NA,NA,NA,NA
"pilot3_9",178,"right","SHINEd_Drill.jpg","congruent","m",556.951301,"j","j","right","(862, 362)",30,1,557.223276030162,-65.4649183207151,NA,NA,NA,NA,NA
"pilot3_9",124,"left","SHINEd_Drum_Bongos.jpg","incongruent","m",580.577989,"j","j","right","(148, 362)",9,1,580.618678177741,-42.0695161731364,NA,NA,NA,NA,NA
"pilot3_9",217,"right","SHINEd_DustPan.jpg","congruent","m",690.819477,"j","j","right","(862, 362)",54,1,691.258491812467,68.5702974615893,NA,NA,NA,NA,NA
"pilot3_9",164,"right","SHINEd_ElectricOutlet.jpg","congruent","m",661.994364,"j","j","right","(862, 362)",102,1,662.206376031386,39.5181816805091,NA,NA,NA,NA,NA
"pilot3_9",28,"left","SHINEd_Elephant.jpg","congruent","n",759.747392,"f","f","left","(148, 362)",349,1,759.376906328992,136.688711978114,NA,NA,NA,NA,NA
"pilot3_9",50,"left","SHINEd_Escalator.jpg","incongruent","m",612.318087,"j","j","right","(148, 362)",177,1,612.041828898497,-10.6463654523806,NA,NA,NA,NA,NA
"pilot3_9",106,"right","SHINEd_Feet.jpg","incongruent","n",595.985146,"f","f","left","(862, 362)",310,1,595.9487398936,-26.7394544572769,NA,NA,NA,NA,NA
"pilot3_9",36,"left","SHINEd_FileDivider.jpg","incongruent","m",748.516423,"j","j","right","(148, 362)",69,1,748.180201899721,125.492007548844,NA,NA,NA,NA,NA
"pilot3_9",27,"left","SHINEd_Fish_Rockbass.jpg","congruent","n",696.584088,"f","f","left","(148, 362)",341,1,696.20931925765,73.5211249067733,NA,NA,NA,NA,NA
"pilot3_9",212,"right","SHINEd_Flamingo_Real.jpg","incongruent","n",590.787931,"f","f","left","(862, 362)",406,1,591.205530455761,-31.4826638951164,NA,NA,NA,NA,NA
"pilot3_9",102,"right","SHINEd_Flashlight.jpg","congruent","m",777.497126,"j","j","right","(862, 362)",98,1,777.443587608236,154.755393257359,NA,NA,NA,NA,NA
"pilot3_9",165,"left","SHINEd_FlipFlop_PairBlue.jpg","incongruent","m",577.567198,"j","j","right","(148, 362)",153,1,577.783493102727,-44.9047012481498,NA,NA,NA,NA,NA
"pilot3_9",174,"right","SHINEd_Fruit_Orange.jpg","incongruent","n",531.832508,"f","f","left","(862, 362)",302,1,532.087350744798,-90.6008436060796,NA,NA,NA,NA,NA
"pilot3_9",120,"right","SHINEd_Fryingpan.jpg","congruent","m",556.024839,"j","j","right","(862, 362)",158,1,556.048395892376,-66.6397984585009,NA,NA,NA,NA,NA
"pilot3_9",72,"left","SHINEd_Gametable_AirHockey.jpg","incongruent","m",650.572446,"j","j","right","(148, 362)",85,1,650.390415468002,27.7022211171245,NA,NA,NA,NA,NA
"pilot3_9",121,"right","SHINEd_Gecko.jpg","incongruent","n",0,".","f","left","(862, 362)",370,0,0.0278399637174971,-622.66035438716,NA,NA,NA,NA,NA
"pilot3_9",3,"left","SHINEd_Giraffe.jpg","congruent","n",430.835298,"f","f","left","(148, 362)",381,1,430.357735545463,-192.330458805414,NA,NA,NA,NA,NA
"pilot3_9",226,"right","SHINEd_Glove_Rubber.jpg","congruent","m",576.981112,"j","j","right","(862, 362)",138,1,577.458674454537,-45.2295198963404,NA,NA,NA,NA,NA
"pilot3_9",83,"left","SHINEd_Gloves_WhiteKnit.jpg","incongruent","m",677.643581,"j","j","right","(148, 362)",197,1,677.508664252754,54.820469901877,NA,NA,NA,NA,NA
"pilot3_9",74,"right","SHINEd_Goat.jpg","incongruent","n",647.25562,"f","f","left","(862, 362)",322,1,647.082155610684,24.3939612598068,NA,NA,NA,NA,NA
"pilot3_9",176,"left","SHINEd_Gorilla.jpg","congruent","n",596.611177,"f","f","left","(148, 362)",285,1,596.87458588748,-25.8136084633973,NA,NA,NA,NA,NA
"pilot3_9",14,"right","SHINEd_Grape.jpg","incongruent","n",693.689789,"f","f","left","(862, 362)",274,1,693.259340330216,70.5711459793385,NA,NA,NA,NA,NA
"pilot3_9",63,"left","SHINEd_Gum_Pack.jpg","incongruent","m",799.176583,"j","j","right","(148, 362)",77,1,798.956004825931,176.267810475054,NA,NA,NA,NA,NA
"pilot3_9",181,"right","SHINEd_HairClip.jpg","congruent","m",547.996399,"j","j","right","(862, 362)",194,1,548.281223244186,-74.4069711066916,NA,NA,NA,NA,NA
"pilot3_9",16,"left","SHINEd_HairDryer.jpg","incongruent","m",556.637071,"j","j","right","(148, 362)",45,1,556.215188472898,-66.4730058779792,NA,NA,NA,NA,NA
"pilot3_9",177,"left","SHINEd_Hat_Baseball.jpg","incongruent","m",466.001617,"j","j","right","(148, 362)",189,1,466.269308958821,-156.418885392056,NA,NA,NA,NA,NA
"pilot3_9",41,"right","SHINEd_Heater_Outdoor.jpg","congruent","m",505.857034,"j","j","right","(862, 362)",170,1,505.542228256426,-117.145966094451,NA,NA,NA,NA,NA
"pilot3_9",94,"right","SHINEd_Helmet_Bicycle.jpg","congruent","m",674.630624,"j","j","right","(862, 362)",18,1,674.542821037507,51.8546266866295,NA,NA,NA,NA,NA
"pilot3_9",139,"left","SHINEd_HotWaterBottle.jpg","incongruent","m",517.095975,"j","j","right","(148, 362)",113,1,517.200910247858,-105.487284103019,NA,NA,NA,NA,NA
"pilot3_9",71,"right","SHINEd_Hourglass.jpg","congruent","m",549.307211,"j","j","right","(862, 362)",110,1,549.120897396661,-73.5672969542166,NA,NA,NA,NA,NA
"pilot3_9",69,"right","SHINEd_Jacket_Suit.jpg","congruent","m",553.445696,"j","j","right","(862, 362)",2,1,553.250816253978,-69.437378096899,NA,NA,NA,NA,NA
"pilot3_9",117,"left","SHINEd_Jetski.jpg","incongruent","m",686.990587,"j","j","right","(148, 362)",181,1,687.001294678353,64.3131003274756,NA,NA,NA,NA,NA
"pilot3_9",136,"left","SHINEd_Kettle.jpg","incongruent","m",517.691875,"j","j","right","(148, 362)",157,1,517.783961033834,-104.904233317043,NA,NA,NA,NA,NA
"pilot3_9",49,"right","SHINEd_Kite_Rainbow.jpg","congruent","m",871.761742,"f","j","right","(862, 362)",78,0,871.481200827156,248.793006476278,NA,NA,NA,NA,NA
"pilot3_9",11,"left","SHINEd_Knee.jpg","congruent","n",464.569579,"j","f","left","(148, 362)",309,0,464.126281116192,-158.561913234685,NA,NA,NA,NA,NA
"pilot3_9",130,"left","SHINEd_Knife_Camping.jpg","incongruent","m",685.120969,"j","j","right","(148, 362)",37,1,685.187356605788,62.4991622549104,NA,NA,NA,NA,NA
"pilot3_9",170,"right","SHINEd_LawnMower.jpg","congruent","m",614.454125,"j","j","right","(862, 362)",46,1,614.691835459433,-7.99635889144415,NA,NA,NA,NA,NA
"pilot3_9",147,"left","SHINEd_Leaf_Clover.jpg","congruent","n",566.871876,"f","f","left","(148, 362)",449,1,567.011075818587,-55.6771185322902,NA,NA,NA,NA,NA
"pilot3_9",113,"left","SHINEd_Leek.jpg","congruent","n",684.623823,"f","f","left","(148, 362)",357,1,684.617398392988,61.9292040421111,NA,NA,NA,NA,NA
"pilot3_9",169,"left","SHINEd_Leg.jpg","congruent","n",754.143166,"f","f","left","(148, 362)",405,1,754.376593388092,131.688399037215,NA,NA,NA,NA,NA
"pilot3_9",196,"right","SHINEd_LightHouse.jpg","congruent","m",549.51271,"j","j","right","(862, 362)",146,1,549.861780314303,-72.8264140365746,NA,NA,NA,NA,NA
"pilot3_9",39,"left","SHINEd_Lilypad.jpg","congruent","n",779.045344,"f","f","left","(148, 362)",413,1,778.721972113744,156.033777762867,NA,NA,NA,NA,NA
"pilot3_9",24,"right","SHINEd_Lips_Real.jpg","incongruent","n",657.064443,"f","f","left","(862, 362)",390,1,656.676825043627,33.9886306927499,NA,NA,NA,NA,NA
"pilot3_9",64,"right","SHINEd_Lipstick.jpg","congruent","m",761.991186,"j","j","right","(862, 362)",198,1,761.774890897273,139.086696546395,NA,NA,NA,NA,NA
"pilot3_9",198,"left","SHINEd_Lychee.jpg","congruent","n",568.042429,"f","f","left","(148, 362)",321,1,568.400065456985,-54.2881288938923,NA,NA,NA,NA,NA
"pilot3_9",60,"right","SHINEd_Lynx.jpg","incongruent","n",848.573205,"f","f","left","(862, 362)",438,1,848.339777611908,225.651583261031,NA,NA,NA,NA,NA
"pilot3_9",38,"left","SHINEd_Magnifying_Glass.jpg","incongruent","m",479.055515,"j","j","right","(148, 362)",105,1,478.727860042403,-143.960334308474,NA,NA,NA,NA,NA
"pilot3_9",95,"left","SHINEd_Makeup_Compact.jpg","incongruent","m",598.371457,"j","j","right","(148, 362)",121,1,598.287937108848,-24.4002572420294,NA,NA,NA,NA,NA
"pilot3_9",197,"left","SHINEd_Mango.jpg","congruent","n",514.578826,"f","f","left","(148, 362)",277,1,514.932179385644,-107.756014965233,NA,NA,NA,NA,NA
"pilot3_9",185,"right","SHINEd_Mask_HockeyGoalie.jpg","congruent","m",701.838162,"j","j","right","(862, 362)",126,1,702.14011852955,79.451924178673,NA,NA,NA,NA,NA
"pilot3_9",192,"left","SHINEd_Mattress.jpg","incongruent","m",515.179151,"j","j","right","(148, 362)",49,1,515.511089028938,-107.177105321939,NA,NA,NA,NA,NA
"pilot3_9",145,"left","SHINEd_Megaphone.jpg","incongruent","m",550.848663,"j","j","right","(148, 362)",101,1,550.979296675905,-71.7088976749726,NA,NA,NA,NA,NA
"pilot3_9",62,"right","SHINEd_Mirror_Makeup.jpg","congruent","m",512.006852,"j","j","right","(862, 362)",122,1,511.78199075459,-110.906203596287,NA,NA,NA,NA,NA
"pilot3_9",209,"left","SHINEd_Mitt_Oven.jpg","incongruent","m",825.043281,"j","j","right","(148, 362)",137,1,825.448031241737,202.75983689086,NA,NA,NA,NA,NA
"pilot3_9",175,"right","SHINEd_MobilityScooter.jpg","congruent","m",568.891716,"j","j","right","(862, 362)",182,1,569.150841816139,-53.5373525347385,NA,NA,NA,NA,NA
"pilot3_9",32,"left","SHINEd_MusicSheet.jpg","incongruent","m",674.663456,"j","j","right","(148, 362)",13,1,674.310102614356,51.621908263479,NA,NA,NA,NA,NA
"pilot3_9",15,"right","SHINEd_Nail.jpg","congruent","m",552.831869,"j","j","right","(862, 362)",38,1,552.405703401557,-70.2824909493204,NA,NA,NA,NA,NA
"pilot3_9",53,"right","SHINEd_Nuts_Pecan.jpg","incongruent","n",0,".","f","left","(862, 362)",246,0,-0.263408887479841,-622.951603238357,NA,NA,NA,NA,NA
"pilot3_9",88,"right","SHINEd_Nuts_Walnut.jpg","incongruent","n",695.172481,"f","f","left","(862, 362)",446,1,695.05897960946,72.3707852585826,NA,NA,NA,NA,NA
"pilot3_9",167,"left","SHINEd_Oyster.jpg","congruent","n",0,".","f","left","(148, 362)",433,0,0.22486124540967,-622.463333105468,NA,NA,NA,NA,NA
"pilot3_9",128,"left","SHINEd_Pacifier.jpg","incongruent","m",966.427514,"f","j","right","(148, 362)",81,0,966.485335463105,343.797141112228,NA,NA,NA,NA,NA
"pilot3_9",85,"left","SHINEd_Pants_Firefighter.jpg","incongruent","m",680.688059,"j","j","right","(148, 362)",1,1,680.561708395436,57.8735140445592,NA,NA,NA,NA,NA
"pilot3_9",57,"left","SHINEd_Paw.jpg","congruent","n",572.856663,"f","f","left","(148, 362)",301,1,572.610386397885,-50.0778079529926,NA,NA,NA,NA,NA
"pilot3_9",134,"right","SHINEd_PencilSharpener.jpg","congruent","m",655.064102,"j","j","right","(862, 362)",74,1,655.147621891152,32.459427540275,NA,NA,NA,NA,NA
"pilot3_9",87,"right","SHINEd_PictureFrame.jpg","congruent","m",649.746616,"j","j","right","(862, 362)",222,1,649.628831538119,26.9406371872415,NA,NA,NA,NA,NA
"pilot3_9",207,"left","SHINEd_Pineapple.jpg","congruent","n",480.636548,"f","f","left","(148, 362)",353,1,481.032732099055,-141.655462251822,NA,NA,NA,NA,NA
"pilot3_9",141,"right","SHINEd_Pumpkin.jpg","incongruent","n",549.722564,"f","f","left","(862, 362)",294,1,549.83606539054,-72.8521289603371,NA,NA,NA,NA,NA
"pilot3_9",221,"left","SHINEd_Quartz.jpg","congruent","n",948.04496,"j","f","left","(148, 362)",401,0,948.501107097831,325.812912746954,NA,NA,NA,NA,NA
"pilot3_9",56,"right","SHINEd_Radish.jpg","incongruent","n",615.71341,"f","f","left","(862, 362)",242,1,615.462850326543,-7.22534402433378,NA,NA,NA,NA,NA
"pilot3_9",143,"right","SHINEd_RamAnimal.jpg","incongruent","n",711.811872,"f","f","left","(862, 362)",454,1,711.933939533222,89.2457451823452,NA,NA,NA,NA,NA
"pilot3_9",55,"left","SHINEd_RecordPlayer.jpg","incongruent","m",587.228709,"j","j","right","(148, 362)",149,1,586.973866255202,-35.7143280956749,NA,NA,NA,NA,NA
"pilot3_9",46,"right","SHINEd_RollerBlade.jpg","congruent","m",602.750811,"j","j","right","(862, 362)",178,1,602.457420613132,-20.2307737377451,NA,NA,NA,NA,NA
"pilot3_9",45,"left","SHINEd_Ruler_Wooden.jpg","incongruent","m",565.518679,"j","j","right","(148, 362)",73,1,565.221005541791,-57.4671888090862,NA,NA,NA,NA,NA
"pilot3_9",12,"left","SHINEd_Saw.jpg","incongruent","m",566.69327,"j","j","right","(148, 362)",33,1,566.254255187533,-56.4339391633438,NA,NA,NA,NA,NA
"pilot3_9",30,"right","SHINEd_Scooter.jpg","congruent","m",575.845759,"j","j","right","(862, 362)",174,1,575.483839471674,-47.2043548792033,NA,NA,NA,NA,NA
"pilot3_9",224,"right","SHINEd_Seashell_BayScallop.jpg","incongruent","n",470.798582,"f","f","left","(862, 362)",270,1,471.267578311854,-151.420616039023,NA,NA,NA,NA,NA
"pilot3_9",61,"left","SHINEd_ShoppingCart.jpg","incongruent","m",484.172662,"j","j","right","(148, 362)",109,1,483.943517683249,-138.744676667628,NA,NA,NA,NA,NA
"pilot3_9",163,"left","SHINEd_Skates.jpg","incongruent","m",547.928542,"j","j","right","(148, 362)",125,1,548.136270960045,-74.5519233908321,NA,NA,NA,NA,NA
"pilot3_9",195,"right","SHINEd_SkullDeer.jpg","incongruent","n",593.53801,"f","f","left","(862, 362)",278,1,593.882797242961,-28.8053971079157,NA,NA,NA,NA,NA
"pilot3_9",129,"right","SHINEd_Slide.jpg","congruent","m",0,".","j","right","(862, 362)",82,0,0.0621045344465756,-622.626089816431,NA,NA,NA,NA,NA
"pilot3_9",66,"right","SHINEd_Slippers.jpg","congruent","m",785.575048,"j","j","right","(862, 362)",154,1,785.367319039955,162.679124689078,NA,NA,NA,NA,NA
"pilot3_9",105,"left","SHINEd_Snail.jpg","congruent","n",863.397879,"f","f","left","(148, 362)",241,1,863.357189822259,240.668995471382,NA,NA,NA,NA,NA
"pilot3_9",19,"right","SHINEd_Starfish.jpg","incongruent","n",699.689552,"j","f","left","(862, 362)",378,0,699.280518686921,76.5923243360443,NA,NA,NA,NA,NA
"pilot3_9",140,"right","SHINEd_Swing_Child.jpg","congruent","m",800.956551,"j","j","right","(862, 362)",166,1,801.065769319199,178.377574968322,NA,NA,NA,NA,NA
"pilot3_9",189,"left","SHINEd_Switch_LightWhite.jpg","incongruent","m",542.605731,"j","j","right","(148, 362)",57,1,542.924819814915,-79.7633745359625,NA,NA,NA,NA,NA
"pilot3_9",180,"right","SHINEd_Teapot.jpg","congruent","m",614.308971,"j","j","right","(862, 362)",214,1,614.589512172844,-8.09868217803271,NA,NA,NA,NA,NA
"pilot3_9",222,"right","SHINEd_TissueBox.jpg","congruent","m",582.863174,"j","j","right","(862, 362)",50,1,583.323604169172,-39.364590181705,NA,NA,NA,NA,NA
"pilot3_9",204,"left","SHINEd_Toad.jpg","congruent","n",587.154536,"f","f","left","(148, 362)",441,1,587.537870885032,-35.1503234658455,NA,NA,NA,NA,NA
"pilot3_9",126,"right","SHINEd_Tomato.jpg","incongruent","n",611.969708,"f","f","left","(862, 362)",450,1,612.018963320423,-10.6692310304542,NA,NA,NA,NA,NA
"pilot3_9",223,"left","SHINEd_Tree_Fir.jpg","congruent","n",0,".","f","left","(148, 362)",229,0,0.464713240513447,-622.223481110364,NA,NA,NA,NA,NA
"pilot3_9",138,"left","SHINEd_Turtle.jpg","congruent","n",552.539251,"f","f","left","(148, 362)",305,1,552.639903176517,-70.0482911743605,NA,NA,NA,NA,NA
"pilot3_9",173,"right","SHINEd_USBKey.jpg","congruent","m",544.205902,"j","j","right","(862, 362)",90,1,544.456461673456,-78.2317326774207,NA,NA,NA,NA,NA
"pilot3_9",8,"left","SHINEd_Vase_Decorative copy.jpg","incongruent","m",464.561825,"j","j","right","(148, 362)",221,1,464.105677902169,-158.582516448708,NA,NA,NA,NA,NA
"pilot3_9",152,"left","SHINEd_Vest.jpg","incongruent","m",694.113854,"j","j","right","(148, 362)",5,1,694.274469175293,71.5862748244153,NA,NA,NA,NA,NA
"pilot3_9",160,"left","SHINEd_WatermelonSlice.jpg","congruent","n",572.165542,"f","f","left","(148, 362)",325,1,572.360421746022,-50.3277726048555,NA,NA,NA,NA,NA
"pilot3_9",154,"right","SHINEd_Weights_Dumbells.jpg","congruent","m",726.960193,"j","j","right","(862, 362)",22,1,727.129374317975,104.441179967098,NA,NA,NA,NA,NA
"pilot3_9",157,"left","SHINEd_Wheel_Steering.jpg","incongruent","m",766.207518,"j","j","right","(148, 362)",185,1,766.389548531998,143.701354181121,NA,NA,NA,NA,NA
"pilot3_9",9,"right","SHINEd_accordion.jpg","congruent","m",430.324205,"j","j","right","(862, 362)",10,1,429.87234097351,-192.815853377367,NA,NA,NA,NA,NA
"pilot3_9",5,"right","SHINEd_airpump.jpg","congruent","m",565.277722,"j","j","right","(862, 362)",114,1,564.808725688146,-57.8794686627317,NA,NA,NA,NA,NA
"pilot3_9",81,"right","SHINEd_antlers.jpg","incongruent","n",916.052929,"f","f","left","(862, 362)",418,1,915.909446110072,293.221251759195,NA,NA,NA,NA,NA
"pilot3_9",20,"left","SHINEd_artichoke.jpg","congruent","n",829.911721,"f","f","left","(148, 362)",453,1,829.506970758262,206.818776407385,NA,NA,NA,NA,NA
"pilot3_9",48,"right","SHINEd_avocado.jpg","incongruent","n",850.716129,"f","f","left","(862, 362)",394,1,850.431304755814,227.743110404937,NA,NA,NA,NA,NA
"pilot3_9",219,"right","SHINEd_brownbeans.jpg","incongruent","n",764.90015,"f","f","left","(862, 362)",366,1,765.347730955149,142.659536604272,NA,NA,NA,NA,NA
"pilot3_9",191,"left","SHINEd_brusselsprouts.jpg","congruent","n",591.281101,"f","f","left","(148, 362)",265,1,591.608755957597,-31.0794383932802,NA,NA,NA,NA,NA
"pilot3_9",151,"left","SHINEd_catcus.jpg","congruent","n",504.754478,"j","f","left","(148, 362)",313,0,504.910810103951,-117.777384246926,NA,NA,NA,NA,NA
"pilot3_9",214,"left","SHINEd_catfish.jpg","congruent","n",885.701443,"f","f","left","(148, 362)",361,1,886.127608598443,263.439414247566,NA,NA,NA,NA,NA
"pilot3_9",2,"left","SHINEd_cheetah.jpg","congruent","n",665.979364,"f","f","left","(148, 362)",245,1,665.497518474122,42.809324123245,NA,NA,NA,NA,NA
"pilot3_9",142,"left","SHINEd_cottonplant.jpg","congruent","n",746.955612,"f","f","left","(148, 362)",297,1,747.073396461881,124.385202111004,NA,NA,NA,NA,NA
"pilot3_9",82,"right","SHINEd_couch.jpg","congruent","m",698.046722,"j","j","right","(862, 362)",202,1,697.907522181413,75.2193278305359,NA,NA,NA,NA,NA
"pilot3_9",51,"left","SHINEd_dinosaur fossil.jpg","congruent","n",736.69708,"f","f","left","(148, 362)",377,1,736.425104969838,113.736910618961,NA,NA,NA,NA,NA
"pilot3_9",210,"right","SHINEd_discoball.jpg","congruent","m",684.277698,"j","j","right","(862, 362)",226,1,684.686731313079,61.9985369622013,NA,NA,NA,NA,NA
"pilot3_9",35,"left","SHINEd_donkey.jpg","congruent","n",497.355516,"f","f","left","(148, 362)",409,1,497.01501182838,-125.673182522498,NA,NA,NA,NA,NA
"pilot3_9",118,"left","SHINEd_dragonfruit.jpg","congruent","n",715.826474,"f","f","left","(148, 362)",437,1,715.841464749694,93.1532703988167,NA,NA,NA,NA,NA
"pilot3_9",22,"right","SHINEd_durian.jpg","incongruent","n",917.073575,"f","f","left","(862, 362)",374,1,916.677390900945,293.989196550068,NA,NA,NA,NA,NA
"pilot3_9",93,"right","SHINEd_eucalyptus.jpg","incongruent","n",839.077356,"f","f","left","(862, 362)",282,1,838.985269966166,216.297075615288,NA,NA,NA,NA,NA
"pilot3_9",67,"left","SHINEd_fountain.jpg","incongruent","m",814.420659,"j","j","right","(148, 362)",169,1,814.217213111296,191.529018760419,NA,NA,NA,NA,NA
"pilot3_9",65,"right","SHINEd_fox.jpg","incongruent","n",631.488043,"f","f","left","(862, 362)",334,1,631.276030968614,8.58783661773645,NA,NA,NA,NA,NA
"pilot3_9",203,"left","SHINEd_frog.jpg","congruent","n",639.612951,"f","f","left","(148, 362)",345,1,639.992002813691,17.3038084628133,NA,NA,NA,NA,NA
"pilot3_9",125,"left","SHINEd_goldenberry.jpg","congruent","n",729.929671,"f","f","left","(148, 362)",397,1,729.974643249082,107.286448898205,NA,NA,NA,NA,NA
"pilot3_9",228,"right","SHINEd_grasshopper.jpg","incongruent","n",593.436524,"f","f","left","(862, 362)",286,1,593.922652597219,-28.7655417536582,NA,NA,NA,NA,NA
"pilot3_9",1,"right","SHINEd_greenapple.jpg","incongruent","n",0,".","f","left","(862, 362)",410,0,-0.486128597219022,-623.174322948096,NA,NA,NA,NA,NA
"pilot3_9",44,"right","SHINEd_honeydew.jpg","incongruent","n",753.253442,"f","f","left","(862, 362)",330,1,752.95148547045,130.263291119573,NA,NA,NA,NA,NA
"pilot3_9",75,"left","SHINEd_horse.jpg","congruent","n",523.803083,"f","f","left","(148, 362)",269,1,523.633901682025,-99.0542926688521,NA,NA,NA,NA,NA
"pilot3_9",47,"right","SHINEd_hyena.jpg","incongruent","n",589.689686,"f","f","left","(862, 362)",422,1,589.400578684473,-33.2876156664039,NA,NA,NA,NA,NA
"pilot3_9",86,"left","SHINEd_koala.jpg","congruent","n",548.734962,"f","f","left","(148, 362)",365,1,548.612894466778,-74.0752998840996,NA,NA,NA,NA,NA
"pilot3_9",91,"right","SHINEd_ladybug.jpg","incongruent","n",701.833987,"f","f","left","(862, 362)",238,1,701.733334823483,79.045140472606,NA,NA,NA,NA,NA
"pilot3_9",68,"right","SHINEd_lotusroot.jpg","incongruent","n",837.382013,"j","f","left","(862, 362)",298,0,837.182850182637,214.49465583176,NA,NA,NA,NA,NA
"pilot3_9",193,"right","SHINEd_manatee.jpg","incongruent","n",809.157777,"f","f","left","(862, 362)",342,1,809.493998100279,186.805803749402,NA,NA,NA,NA,NA
"pilot3_9",194,"left","SHINEd_mizuna.jpg","congruent","n",613.695569,"f","f","left","(148, 362)",429,1,614.03607317162,-8.65212117925686,NA,NA,NA,NA,NA
"pilot3_9",114,"left","SHINEd_mosquito.jpg","congruent","n",816.169603,"f","f","left","(148, 362)",393,1,816.167461464329,193.479267113452,NA,NA,NA,NA,NA
"pilot3_9",98,"right","SHINEd_mushroom_other.jpg","incongruent","n",846.360639,"f","f","left","(862, 362)",426,1,846.289968322871,223.601773971994,NA,NA,NA,NA,NA
"pilot3_9",78,"left","SHINEd_okapi.jpg","congruent","n",582.61165,"f","f","left","(148, 362)",425,1,582.455317896049,-40.2328764548287,NA,NA,NA,NA,NA
"pilot3_9",187,"left","SHINEd_orchid.jpg","congruent","n",832.482611,"f","f","left","(148, 362)",261,1,832.793133672232,210.104939321355,NA,NA,NA,NA,NA
"pilot3_9",133,"right","SHINEd_peacockfeather.jpg","incongruent","n",681.531849,"f","f","left","(862, 362)",382,1,681.611085819811,58.9228914689338,NA,NA,NA,NA,NA
"pilot3_9",190,"left","SHINEd_pickle.jpg","congruent","n",545.756036,"f","f","left","(148, 362)",373,1,546.079407886256,-76.6087864646214,NA,NA,NA,NA,NA
"pilot3_9",132,"left","SHINEd_platypus.jpg","congruent","n",655.041753,"f","f","left","(148, 362)",293,1,655.11670674847,32.4285123975926,NA,NA,NA,NA,NA
"pilot3_9",96,"right","SHINEd_pomegrant.jpg","incongruent","n",628.014288,"f","f","left","(862, 362)",354,1,627.935051180189,5.24685682931171,NA,NA,NA,NA,NA
"pilot3_9",33,"left","SHINEd_pumpkinseeds-.jpg","congruent","n",583.782166,"f","f","left","(148, 362)",237,1,583.433095685697,-39.2550986651799,NA,NA,NA,NA,NA
"pilot3_9",168,"right","SHINEd_purple_yam.jpg","incongruent","n",742.418897,"f","f","left","(862, 362)",442,1,742.648041316751,119.959846965874,NA,NA,NA,NA,NA
"pilot3_9",29,"right","SHINEd_rabbitt.jpg","incongruent","n",525.193921,"f","f","left","(862, 362)",350,1,524.827718400333,-97.8604759505444,NA,NA,NA,NA,NA
"pilot3_9",4,"right","SHINEd_raccoon.jpg","incongruent","n",521.014483,"f","f","left","(862, 362)",262,1,520.541203616804,-102.146990734073,NA,NA,NA,NA,NA
"pilot3_9",108,"right","SHINEd_red_Cabbage.jpg","incongruent","n",710.824727,"f","f","left","(862, 362)",230,1,710.796887036283,88.1086926854054,NA,NA,NA,NA,NA
"pilot3_9",122,"left","SHINEd_red_panda.jpg","congruent","n",507.949732,"f","f","left","(148, 362)",273,1,507.981855035059,-114.706339315819,NA,NA,NA,NA,NA
"pilot3_9",37,"left","SHINEd_rhino horn.jpg","congruent","n",786.007403,"f","f","left","(148, 362)",249,1,785.675464971062,162.987270620185,NA,NA,NA,NA,NA
"pilot3_9",146,"right","SHINEd_rose.jpg","incongruent","n",473.20456,"f","f","left","(862, 362)",430,1,473.339476747246,-149.348717603631,NA,NA,NA,NA,NA
"pilot3_9",26,"right","SHINEd_scallion.jpg","incongruent","n",756.340731,"f","f","left","(862, 362)",314,1,755.961679186309,133.273484835432,NA,NA,NA,NA,NA
"pilot3_9",77,"right","SHINEd_skeleton-lizard.jpg","incongruent","n",962.52893,"j","f","left","(862, 362)",250,0,962.368314824707,339.68012047383,NA,NA,NA,NA,NA
"pilot3_9",79,"right","SHINEd_skunk.jpg","incongruent","n",658.819131,"f","f","left","(862, 362)",290,1,658.66708196739,35.9788876165124,NA,NA,NA,NA,NA
"pilot3_9",104,"left","SHINEd_soil.jpg","congruent","n",931.218598,"j","f","left","(148, 362)",289,0,931.173625750918,308.485431400041,NA,NA,NA,NA,NA
"pilot3_9",103,"right","SHINEd_spinach.jpg","incongruent","n",836.597282,"f","f","left","(862, 362)",266,1,836.548026679577,213.8598323287,NA,NA,NA,NA,NA
"pilot3_9",220,"left","SHINEd_starfruit.jpg","congruent","n",712.167127,"f","f","left","(148, 362)",317,1,712.61899102649,89.9307966756128,NA,NA,NA,NA,NA
"pilot3_9",42,"right","SHINEd_treestump.jpg","incongruent","n",933.915964,"f","f","left","(862, 362)",414,1,933.605441327768,310.91724697689,NA,NA,NA,NA,NA
"pilot3_9",149,"left","SHINEd_vanillabean copy.jpg","congruent","n",912.197027,"f","f","left","(148, 362)",329,1,912.344792961269,289.656598610392,NA,NA,NA,NA,NA
"pilot3_9",135,"right","SHINEd_volcano copy.jpg","incongruent","n",737.941355,"f","f","left","(862, 362)",234,1,738.029157962493,115.340963611616,NA,NA,NA,NA,NA
"pilot3_9",13,"left","SHINEd_whale.jpg","congruent","n",528.350203,"f","f","left","(148, 362)",421,1,527.915471258875,-94.7727230920026,NA,NA,NA,NA,NA
"pilot3_9",100,"right","SHINEd_wheat_stock.jpg","incongruent","n",607.493069,"f","f","left","(862, 362)",358,1,607.430964465554,-15.2572298853237,NA,NA,NA,NA,NA
"pilot3_9",183,"left","SHINEd_white_strawberries.jpg","congruent","n",493.928535,"f","f","left","(148, 362)",417,1,494.221925386868,-128.466268964009,NA,NA,NA,NA,NA
"pilot3_9",59,"left","SHINEd_worm.jpg","congruent","n",764.699891,"j","f","left","(148, 362)",389,0,764.462180540567,141.77398618969,NA,NA,NA,NA,NA
