"participant","trial_index","screenposition","stimulus","trialtype","classifyenc","rt","response","responsecorrect","responsecorrect_side","screenlocation","stimnum","acc","rtResidual","rtResidualC","rt_rec","trialno_rec","ratingConfidence","acc_rec","memoryHits.hc"
"pilot3_4",116,"left","SHINEd_Ball_Basketball.jpg","congruent","m",568.749177,"j","f","left","(148, 362)",130,0,568.7815480717,-50.0856004326856,"5302.56",4,4,1,1
"pilot3_4",23,"left","SHINEd_Ball_Bowling.jpg","congruent","m",745.865687,"f","f","left","(148, 362)",134,1,743.891051626281,125.023903121895,"2981.75",94,3,0,1
"pilot3_4",31,"right","SHINEd_BasketballHoop.jpg","incongruent","m",592.958688,"f","f","left","(862, 362)",129,1,591.156698342016,-27.7104501623701,"1397.95",221,4,1,1
"pilot3_4",73,"left","SHINEd_Bathtub.jpg","congruent","m",751.698861,"f","f","left","(148, 362)",58,1,750.803261349625,131.936112845239,"1143.31",223,3,0,1
"pilot3_4",45,"left","SHINEd_BearPolar.jpg","incongruent","n",666.538219,"j","j","right","(148, 362)",386,1,665.038359344552,46.1712108401662,"2595.63",285,2,1,NA
"pilot3_4",144,"left","SHINEd_Beater_Electric.jpg","congruent","m",931.174376,"f","f","left","(148, 362)",42,1,931.811007076773,312.943858572387,"4132.79",376,3,0,1
"pilot3_4",48,"right","SHINEd_Bells_Christmas.jpg","incongruent","m",624.028317,"j","f","left","(862, 362)",225,0,622.593199487953,3.72605098356679,"1327.77",73,4,0,1
"pilot3_4",125,"left","SHINEd_Bench_Black.jpg","congruent","m",975.170456,"j","f","left","(148, 362)",206,0,975.397053501902,356.529904997516,"3182.78",59,2,0,NA
"pilot3_4",50,"right","SHINEd_BicycleChain.jpg","incongruent","m",577.343943,"f","f","left","(862, 362)",17,1,575.951986916886,-42.9151615874995,"1502.66",203,4,1,1
"pilot3_4",207,"left","SHINEd_Bicycle_Kids.jpg","congruent","m",630.294547,"f","f","left","(148, 362)",26,1,632.290763088186,13.4236145838,"2920.3",218,3,0,1
"pilot3_4",174,"right","SHINEd_Binder.jpg","incongruent","m",645.956515,"j","f","left","(862, 362)",65,0,647.240567510779,28.3734190063931,"2334.86",435,3,0,1
"pilot3_4",222,"right","SHINEd_Bird_Eagle.jpg","congruent","n",476.42674,"j","j","right","(862, 362)",257,1,478.746666805189,-140.120481699197,"2143.92",363,2,0,NA
"pilot3_4",191,"right","SHINEd_Bird_Parrot.jpg","congruent","n",547.8686,"f","j","right","(862, 362)",233,0,549.519524656716,-69.34762384767,"5570.45",167,4,1,1
"pilot3_4",18,"left","SHINEd_Bird_Pelican.jpg","incongruent","n",507.080228,"j","j","right","(148, 362)",402,1,504.997689053946,-113.86945945044,"3108.43",448,2,1,NA
"pilot3_4",88,"right","SHINEd_Bleachers.jpg","incongruent","m",473.941824,"j","f","left","(862, 362)",133,0,473.369935066628,-145.497213437758,"3374.25",61,2,0,NA
"pilot3_4",173,"left","SHINEd_Boardgame_Chess.jpg","congruent","m",544.912705,"f","f","left","(148, 362)",86,1,546.175176796312,-72.6919717080738,"3209.18",431,2,1,NA
"pilot3_4",179,"right","SHINEd_Boat_Colourful.jpg","incongruent","m",961.676162,"f","f","left","(862, 362)",173,1,963.068118083113,344.200969578727,"1627.61",245,4,1,1
"pilot3_4",137,"left","SHINEd_Boot_Rain.jpg","congruent","m",623.131942,"f","f","left","(148, 362)",150,1,623.617508075505,4.7503595711187,"5498.56",62,2,0,NA
"pilot3_4",19,"right","SHINEd_Bottle_Beer.jpg","incongruent","m",530.570061,"f","f","left","(862, 362)",213,1,528.509102768413,-90.3580457359726,"2447.07",215,3,1,1
"pilot3_4",135,"right","SHINEd_Bottle_Blue.jpg","incongruent","m",734.356583,"f","f","left","(862, 362)",217,1,734.798987646571,115.931839142185,"974.45",246,4,1,1
"pilot3_4",199,"left","SHINEd_Bowl_Fruits.jpg","incongruent","n",726.67099,"j","j","right","(148, 362)",434,1,728.494560372451,109.627411868065,"1791.57",31,4,1,1
"pilot3_4",38,"right","SHINEd_Bowl_Wooden.jpg","incongruent","m",717.709263,"f","f","left","(862, 362)",141,1,716.058338343284,97.191189838898,"914.07",82,4,1,1
"pilot3_4",77,"right","SHINEd_BowlingPin.jpg","incongruent","m",887.952688,"j","f","left","(862, 362)",25,0,887.143411207492,268.276262703106,"8727.58",281,2,1,NA
"pilot3_4",5,"left","SHINEd_Box_Notepaper.jpg","congruent","m",574.291228,"f","f","left","(148, 362)",70,1,571.928139765877,-46.9390087385088,"3069.75",39,4,1,1
"pilot3_4",86,"right","SHINEd_Branch.jpg","congruent","n",546.292396,"j","j","right","(862, 362)",333,1,545.677345637694,-73.1898028666919,"2206.77",75,4,0,1
"pilot3_4",127,"left","SHINEd_Briefcase_Leather.jpg","congruent","m",664.053966,"f","f","left","(148, 362)",210,1,664.323724930836,45.4565764264499,"3659.96",377,3,1,1
"pilot3_4",154,"right","SHINEd_Broccoli.jpg","congruent","n",474.908951,"j","j","right","(862, 362)",253,1,475.761389221442,-143.105759282944,"1120.13",427,3,1,1
"pilot3_4",169,"left","SHINEd_Bucket_Rusty.jpg","congruent","m",702.837683,"f","f","left","(148, 362)",34,1,704.013831938445,85.1466834340587,"2173.79",110,4,1,1
"pilot3_4",9,"left","SHINEd_Bugle.jpg","congruent","m",847.096091,"j","f","left","(148, 362)",14,0,844.819325623745,225.952177119359,"8399",222,2,1,NA
"pilot3_4",172,"right","SHINEd_BusStop.jpg","incongruent","m",844.375187,"f","f","left","(862, 362)",145,1,845.616078081845,226.748929577459,"1175.69",348,4,1,1
"pilot3_4",123,"left","SHINEd_Butterfly.jpg","incongruent","n",647.306895,"j","j","right","(148, 362)",318,1,647.490331072968,28.6231825685825,"1957.37",283,2,1,NA
"pilot3_4",42,"right","SHINEd_Cabinet_Display.jpg","incongruent","m",551.079796,"f","f","left","(862, 362)",205,1,549.515194201151,-69.3519543032345,"1404.67",272,4,1,1
"pilot3_4",226,"left","SHINEd_Calculator.jpg","congruent","m",737.015332,"f","f","left","(148, 362)",94,1,739.421581663056,120.554433158671,"3082.97",106,4,1,1
"pilot3_4",139,"right","SHINEd_Camera_Video.jpg","incongruent","m",565.632464,"j","f","left","(862, 362)",97,0,566.161191504438,-52.7059569999475,"4709.78",368,3,0,1
"pilot3_4",194,"left","SHINEd_Cane_Metal.jpg","congruent","m",637.821543,"f","f","left","(148, 362)",190,1,639.537209800117,20.6700612957307,"2193.26",18,3,0,1
"pilot3_4",225,"right","SHINEd_Cannon.jpg","incongruent","m",723.595216,"f","f","left","(862, 362)",61,1,725.97988494859,107.112736444204,"3309.78",70,4,1,1
"pilot3_4",79,"left","SHINEd_Cantaloupe.jpg","incongruent","n",657.875309,"j","j","right","(148, 362)",338,1,657.109193636426,38.2420451320399,"1142.8",336,3,1,1
"pilot3_4",104,"left","SHINEd_Car_Vintage.jpg","congruent","m",574.644522,"f","f","left","(148, 362)",186,1,574.417924498098,-44.4492240062881,"2149.4",77,4,1,1
"pilot3_4",40,"right","SHINEd_Carabiner_Orange.jpg","incongruent","m",516.412939,"f","f","left","(862, 362)",29,1,514.805175772218,-104.061972732168,"1003.15",89,4,0,1
"pilot3_4",214,"right","SHINEd_Carrot.jpg","congruent","n",541.568046,"f","j","right","(862, 362)",281,0,543.715327089454,-75.1518214149319,"2454.39",185,3,1,1
"pilot3_4",25,"left","SHINEd_CasketOpen.jpg","congruent","m",540.084016,"f","f","left","(148, 362)",218,1,538.152542055215,-80.7146064491714,"1037.72",455,4,1,1
"pilot3_4",165,"left","SHINEd_Cat.jpg","incongruent","n",671.428951,"j","j","right","(148, 362)",362,1,672.518777080577,53.6516285761912,"3319.16",2,4,1,1
"pilot3_4",117,"right","SHINEd_ChainRusty.jpg","incongruent","m",909.526058,"f","f","left","(862, 362)",21,1,909.580009786167,290.712861281781,"1995.81",87,3,0,1
"pilot3_4",56,"right","SHINEd_Chair_High.jpg","incongruent","m",499.596072,"f","f","left","(862, 362)",209,1,498.333600203688,-120.533548300698,"3190.8",344,2,0,NA
"pilot3_4",122,"left","SHINEd_ChalkboardEraser.jpg","congruent","m",690.870086,"f","f","left","(148, 362)",62,1,691.031941358502,72.1647928541156,"1350.77",284,4,1,1
"pilot3_4",187,"left","SHINEd_Cheesegrater_Handheld.jpg","congruent","m",642.016106,"f","f","left","(148, 362)",162,1,643.580707798848,24.7135592944625,"1574.33",263,3,1,1
"pilot3_4",53,"left","SHINEd_Cherry.jpg","incongruent","n",596.35599,"j","j","right","(148, 362)",258,1,595.028776060287,-23.8383724440988,"2415.18",235,4,1,1
"pilot3_4",160,"left","SHINEd_Clarinet.jpg","congruent","m",674.973572,"j","f","left","(148, 362)",6,0,675.955494508243,57.0883460038568,"2145.11",199,3,1,1
"pilot3_4",2,"left","SHINEd_Clip_Paper.jpg","congruent","m",634.075213,"f","f","left","(148, 362)",66,1,631.647382622476,12.7802341180904,"3581.99",433,2,1,NA
"pilot3_4",91,"right","SHINEd_Clock_Radio.jpg","incongruent","m",810.207506,"f","f","left","(862, 362)",93,1,809.700359210028,190.833210705642,"1202.02",375,4,1,1
"pilot3_4",190,"left","SHINEd_ClothCoaster.jpg","congruent","m",568.608044,"f","f","left","(148, 362)",142,1,570.237387942249,-48.6297605621369,"1609.23",207,3,0,1
"pilot3_4",20,"right","SHINEd_Cloud.jpg","congruent","n",632.019935,"f","j","right","(862, 362)",385,0,629.98055748288,11.1134089784943,"1663.57",65,4,1,1
"pilot3_4",219,"right","SHINEd_Colander.jpg","incongruent","m",887.758425,"f","f","left","(862, 362)",41,1,890.013609661788,271.146461157402,"3122.36",309,2,0,NA
"pilot3_4",39,"right","SHINEd_Collards.jpg","congruent","n",562.604015,"j","j","right","(862, 362)",445,1,560.974671057751,-57.8924774466351,"1361.63",76,3,1,1
"pilot3_4",54,"right","SHINEd_Corn.jpg","congruent","n",553.678331,"j","j","right","(862, 362)",337,1,552.372697774754,-66.494450729632,"2461.85",205,1,1,NA
"pilot3_4",186,"left","SHINEd_Cranberry.jpg","incongruent","n",725.303796,"j","j","right","(148, 362)",398,1,726.846817084382,107.979668579996,"2487.89",184,3,0,1
"pilot3_4",58,"right","SHINEd_Crown.jpg","incongruent","m",0,".","f","left","(862, 362)",193,0,-1.21931036737851,-620.086458871764,"1632.48",143,4,1,1
"pilot3_4",93,"left","SHINEd_Currants.jpg","incongruent","n",499.555073,"j","j","right","(148, 362)",254,1,499.091087638962,-119.776060865424,"1353.34",276,3,1,1
"pilot3_4",195,"right","SHINEd_DeepFryer.jpg","incongruent","m",910.813291,"f","f","left","(862, 362)",161,1,912.550538514583,293.683390010198,"1341.64",278,3,0,1
"pilot3_4",124,"right","SHINEd_DentalFloss.jpg","incongruent","m",611.248634,"f","f","left","(862, 362)",117,1,611.453650787435,-7.41349771695063,"5533.57",432,3,0,1
"pilot3_4",220,"left","SHINEd_Deodorant.jpg","congruent","m",724.641374,"j","f","left","(148, 362)",118,0,726.918139376255,108.050990871869,"1928.51",45,4,1,1
"pilot3_4",146,"right","SHINEd_Desk_School.jpg","incongruent","m",665.494436,"f","f","left","(862, 362)",201,1,666.174228505706,47.3070800013205,"2722.6",322,3,0,1
"pilot3_4",128,"right","SHINEd_Dice.jpg","incongruent","m",874.613089,"f","f","left","(862, 362)",89,1,874.904428645303,256.037280140917,"4658.49",366,4,1,1
"pilot3_4",212,"right","SHINEd_DogHouse.jpg","incongruent","m",556.273038,"f","f","left","(862, 362)",165,1,558.37715766052,-60.4899908438656,"2070.38",216,2,1,NA
"pilot3_4",95,"left","SHINEd_Dog_Bulldog.jpg","incongruent","n",551.109626,"j","j","right","(148, 362)",326,1,550.688802067896,-68.17834643649,"1456.47",137,3,1,1
"pilot3_4",64,"right","SHINEd_Dog_ChowChow.jpg","congruent","n",0,".","j","right","(862, 362)",369,0,-1.08982608057727,-619.956974584963,"2753.18",117,3,1,1
"pilot3_4",60,"left","SHINEd_Dog_CockerSpaniel.jpg","incongruent","n",755.125383,"f","j","right","(148, 362)",306,0,753.949234061555,135.082085557169,"2990.39",34,3,1,1
"pilot3_4",133,"right","SHINEd_DoorKnob.jpg","incongruent","m",502.642164,"f","f","left","(862, 362)",53,1,503.041407217637,-115.825741286749,"2511.14",406,3,0,1
"pilot3_4",76,"left","SHINEd_Door_Green.jpg","congruent","m",525.116987,"f","f","left","(148, 362)",106,1,524.286129493025,-94.5810190113607,"1445.67",159,3,0,1
"pilot3_4",216,"left","SHINEd_Dragonfly.jpg","incongruent","n",508.436976,"j","j","right","(148, 362)",346,1,510.627418518388,-108.239729985998,"4375.16",238,2,1,NA
"pilot3_4",97,"left","SHINEd_Drill.jpg","congruent","m",542.6109,"f","f","left","(148, 362)",30,1,542.23323749683,-76.6339110075563,"1038.05",267,4,1,1
"pilot3_4",121,"right","SHINEd_Drum_Bongos.jpg","incongruent","m",501.920253,"f","f","left","(862, 362)",9,1,502.060527644035,-116.806620860351,"3396",403,4,1,1
"pilot3_4",131,"left","SHINEd_DustPan.jpg","congruent","m",711.763689,"f","f","left","(148, 362)",54,1,712.119770788703,93.2526222843175,"1328.04",386,4,0,1
"pilot3_4",201,"left","SHINEd_ElectricOutlet.jpg","congruent","m",598.510806,"f","f","left","(148, 362)",102,1,600.377537801385,-18.4896107030012,"1266.46",399,4,1,1
"pilot3_4",28,"right","SHINEd_Elephant.jpg","congruent","n",884.630268,"f","j","right","(862, 362)",349,0,882.763536198615,263.896387694229,"3120.31",155,4,1,1
"pilot3_4",10,"right","SHINEd_Escalator.jpg","incongruent","m",818.231472,"f","f","left","(862, 362)",177,1,815.976287338211,197.109138833826,"926.02",83,4,1,1
"pilot3_4",168,"left","SHINEd_Feet.jpg","incongruent","n",811.768386,"j","j","right","(148, 362)",310,1,812.922954223978,194.055805719592,"1194.61",425,4,1,1
"pilot3_4",83,"right","SHINEd_FileDivider.jpg","incongruent","m",668.416011,"f","f","left","(862, 362)",69,1,667.736218494293,48.8690699899075,"2342",128,4,1,1
"pilot3_4",200,"right","SHINEd_Fish_Rockbass.jpg","congruent","n",473.897788,"j","j","right","(862, 362)",341,1,475.742939086918,-143.124209417468,"1498.3",71,3,1,1
"pilot3_4",90,"left","SHINEd_Flamingo_Real.jpg","incongruent","n",645.360028,"j","j","right","(148, 362)",406,1,644.831300495562,25.9641519911756,"2754.38",315,2,0,NA
"pilot3_4",78,"left","SHINEd_Flashlight.jpg","congruent","m",955.558632,"f","f","left","(148, 362)",98,1,954.770935921959,335.903787417573,"1188.52",72,4,1,1
"pilot3_4",157,"right","SHINEd_FlipFlop_PairBlue.jpg","incongruent","m",494.280002,"f","f","left","(862, 362)",153,1,495.197182364842,-123.669966139544,"895.55",147,4,1,1
"pilot3_4",16,"left","SHINEd_Fruit_Orange.jpg","incongruent","n",762.903564,"j","j","right","(148, 362)",302,1,760.777863625013,141.910715120627,"1361.07",80,4,1,1
"pilot3_4",80,"left","SHINEd_Fryingpan.jpg","congruent","m",580.960945,"f","f","left","(148, 362)",158,1,580.216410350893,-38.6507381534932,"1429.39",254,3,0,1
"pilot3_4",112,"right","SHINEd_Gametable_AirHockey.jpg","incongruent","m",778.500302,"j","f","left","(862, 362)",85,0,778.446350213833,159.579201709447,"2955.06",124,4,1,1
"pilot3_4",193,"left","SHINEd_Gecko.jpg","incongruent","n",450.422098,"j","j","right","(148, 362)",370,1,452.11618408565,-166.750964418736,"861.63",247,4,1,1
"pilot3_4",196,"right","SHINEd_Giraffe.jpg","congruent","n",731.960037,"j","j","right","(862, 362)",381,1,733.71886522905,114.851716724664,"920.97",261,4,1,1
"pilot3_4",181,"left","SHINEd_Glove_Rubber.jpg","congruent","m",554.157245,"f","f","left","(148, 362)",138,1,555.592362512047,-63.2747859923388,"1728.99",398,4,1,1
"pilot3_4",34,"right","SHINEd_Gloves_WhiteKnit.jpg","incongruent","m",572.578351,"f","f","left","(862, 362)",197,1,570.841103485416,-48.0260450189695,"2069.28",138,4,1,1
"pilot3_4",4,"left","SHINEd_Goat.jpg","incongruent","n",594.048359,"j","j","right","(148, 362)",322,1,591.66369005141,-27.2034584529758,"2014.77",389,4,1,1
"pilot3_4",147,"right","SHINEd_Gorilla.jpg","congruent","n",500.67449,"j","j","right","(862, 362)",285,1,501.375863220173,-117.491285284213,"2963.18",53,4,1,1
"pilot3_4",103,"left","SHINEd_Grape.jpg","incongruent","n",512.894154,"j","j","right","(148, 362)",274,1,512.645975783631,-106.221172720755,"2045.07",420,3,0,1
"pilot3_4",29,"right","SHINEd_Gum_Pack.jpg","incongruent","m",602.44481,"f","f","left","(862, 362)",77,1,600.599658913082,-18.2674895913039,"1177.77",409,4,1,1
"pilot3_4",183,"left","SHINEd_HairClip.jpg","congruent","m",864.189482,"f","f","left","(148, 362)",194,1,865.667760940981,246.800612436595,"1215.54",392,4,1,1
"pilot3_4",100,"right","SHINEd_HairDryer.jpg","incongruent","m",869.390148,"f","f","left","(862, 362)",45,1,869.07722764023,250.210079135844,"5273.17",30,2,0,NA
"pilot3_4",177,"right","SHINEd_Hat_Baseball.jpg","incongruent","m",697.665451,"f","f","left","(862, 362)",189,1,699.01424565418,80.1470971497937,"1512.62",169,2,1,NA
"pilot3_4",223,"left","SHINEd_Heater_Outdoor.jpg","congruent","m",552.918747,"f","f","left","(148, 362)",170,1,555.260254519656,-63.6068939847299,"3062.54",347,3,0,1
"pilot3_4",217,"left","SHINEd_Helmet_Bicycle.jpg","congruent","m",727.812122,"f","f","left","(148, 362)",18,1,730.024145232855,111.156996728469,"1166.39",453,3,1,1
"pilot3_4",208,"right","SHINEd_HotWaterBottle.jpg","incongruent","m",769.418019,"j","f","left","(862, 362)",113,0,771.435815802653,152.568667298267,"1140.75",81,4,1,1
"pilot3_4",180,"left","SHINEd_Hourglass.jpg","congruent","m",581.006097,"f","f","left","(148, 362)",110,1,582.41963379758,-36.4475147068057,"2997.44",58,2,1,NA
"pilot3_4",69,"left","SHINEd_Jacket_Suit.jpg","congruent","m",823.999466,"f","f","left","(148, 362)",2,1,823.017543491757,204.150394987371,"3671.02",136,3,1,1
"pilot3_4",26,"right","SHINEd_Jetski.jpg","incongruent","m",934.349641,"j","f","left","(862, 362)",181,0,932.439747769681,313.572599265296,"1478.57",292,4,1,1
"pilot3_4",6,"right","SHINEd_Kettle.jpg","incongruent","m",732.105893,"f","f","left","(862, 362)",157,1,729.764385480344,110.897236975958,"2846.28",197,2,1,NA
"pilot3_4",52,"left","SHINEd_Kite_Rainbow.jpg","congruent","m",0,".","f","left","(148, 362)",78,0,-1.34879465417987,-620.215943158566,"2423.51",69,2,1,NA
"pilot3_4",211,"right","SHINEd_Knee.jpg","congruent","n",856.95461,"j","j","right","(862, 362)",309,1,859.037148946053,240.170000441668,"2005.4",208,4,1,1
"pilot3_4",24,"right","SHINEd_Knife_Camping.jpg","incongruent","m",775.510948,"f","f","left","(862, 362)",37,1,773.557893340748,154.690744836362,"1143.81",266,4,1,1
"pilot3_4",170,"left","SHINEd_LawnMower.jpg","congruent","m",827.54231,"f","f","left","(148, 362)",46,1,828.740039652912,209.872891148526,"1671.45",181,4,1,1
"pilot3_4",204,"right","SHINEd_Leaf_Clover.jpg","congruent","n",570.374142,"j","j","right","(862, 362)",449,1,572.305615944785,-46.5615325596006,"1078.43",32,4,1,1
"pilot3_4",30,"right","SHINEd_Leek.jpg","congruent","n",581.435989,"j","j","right","(862, 362)",357,1,579.612418627549,-39.254729876837,"2108.77",297,3,0,1
"pilot3_4",105,"right","SHINEd_Leg.jpg","congruent","n",0,".","j","right","(862, 362)",405,0,-0.205016787435284,-619.072165291821,"1124.63",417,4,1,1
"pilot3_4",129,"left","SHINEd_LightHouse.jpg","congruent","m",542.366885,"f","f","left","(148, 362)",146,1,542.67980535977,-76.1873431446163,"1655.63",23,4,1,1
"pilot3_4",120,"right","SHINEd_Lilypad.jpg","congruent","n",595.690195,"j","j","right","(862, 362)",413,1,595.808888929568,-23.0582595748182,"1322.91",426,3,1,1
"pilot3_4",67,"left","SHINEd_Lips_Real.jpg","incongruent","n",664.770156,"f","j","right","(148, 362)",390,0,663.745072062823,44.8779235584375,"1260.59",404,4,1,1
"pilot3_4",57,"left","SHINEd_Lipstick.jpg","congruent","m",668.770047,"f","f","left","(148, 362)",198,1,667.529155918155,48.6620074137686,"3470.68",100,2,1,NA
"pilot3_4",11,"right","SHINEd_Lychee.jpg","congruent","n",853.229858,"j","j","right","(862, 362)",321,1,850.996254052678,232.129105548292,"1168.03",326,3,1,1
"pilot3_4",224,"left","SHINEd_Lynx.jpg","incongruent","n",655.152211,"j","j","right","(148, 362)",438,1,657.515299234123,38.6481507297369,"1407.32",384,3,1,1
"pilot3_4",96,"right","SHINEd_Magnifying_Glass.jpg","incongruent","m",514.947613,"f","f","left","(862, 362)",105,1,514.548369782363,-104.318778722023,"1111.46",232,4,1,1
"pilot3_4",110,"right","SHINEd_Makeup_Compact.jpg","incongruent","m",768.36165,"j","f","left","(862, 362)",121,0,768.264536784899,149.397388280513,"1189.49",307,4,1,1
"pilot3_4",113,"right","SHINEd_Mango.jpg","congruent","n",765.15682,"j","j","right","(862, 362)",277,1,765.1244489283,146.257300423914,"2436.57",251,3,1,1
"pilot3_4",210,"left","SHINEd_Mask_HockeyGoalie.jpg","congruent","m",611.050932,"f","f","left","(148, 362)",126,1,613.111890231587,-5.75525827279936,"2552.07",27,4,1,1
"pilot3_4",74,"right","SHINEd_Mattress.jpg","incongruent","m",757.307154,"j","f","left","(862, 362)",49,0,756.433135064091,137.565986559706,"1758.57",374,4,1,1
"pilot3_4",148,"right","SHINEd_Megaphone.jpg","incongruent","m",545.208409,"f","f","left","(862, 362)",101,1,545.93136293464,-72.9357855697457,"4276.75",6,4,1,1
"pilot3_4",221,"left","SHINEd_Mirror_Makeup.jpg","congruent","m",561.056534,"f","f","left","(148, 362)",122,1,563.354880090722,-55.5122684136637,"943.44",456,4,1,1
"pilot3_4",106,"right","SHINEd_Mitt_Oven.jpg","incongruent","m",622.491844,"f","f","left","(862, 362)",137,1,622.308407927031,3.44125942264558,"2375.32",229,3,0,1
"pilot3_4",82,"left","SHINEd_MobilityScooter.jpg","congruent","m",541.747755,"f","f","left","(148, 362)",182,1,541.046381779826,-77.8207667245595,"2063.79",371,3,0,1
"pilot3_4",8,"right","SHINEd_MusicSheet.jpg","incongruent","m",652.361434,"f","f","left","(862, 362)",13,1,650.063087909278,31.1959394048918,"1359.14",146,4,1,1
"pilot3_4",84,"left","SHINEd_Nail.jpg","congruent","m",608.721452,"f","f","left","(148, 362)",38,1,608.06324020876,-10.8039082956257,"2832.52",408,3,1,1
"pilot3_4",182,"left","SHINEd_Nuts_Pecan.jpg","incongruent","n",460.524318,"f","j","right","(148, 362)",246,0,461.981016226514,-156.886132277872,"1167.55",237,4,1,1
"pilot3_4",209,"left","SHINEd_Nuts_Walnut.jpg","incongruent","n",726.36905,"j","j","right","(148, 362)",446,1,728.40842751712,109.541279012734,"1196.29",294,4,1,1
"pilot3_4",46,"right","SHINEd_Oyster.jpg","congruent","n",957.885744,"f","j","right","(862, 362)",433,0,956.407465059019,337.540316554633,"808.04",269,4,1,1
"pilot3_4",153,"right","SHINEd_Pacifier.jpg","incongruent","m",645.72096,"f","f","left","(862, 362)",81,1,646.551817506975,27.6846690025887,"1825.21",119,4,1,1
"pilot3_4",184,"right","SHINEd_Pants_Firefighter.jpg","incongruent","m",654.854734,"f","f","left","(862, 362)",1,1,656.354593655448,37.4874451510619,"1382.12",452,4,1,1
"pilot3_4",107,"right","SHINEd_Paw.jpg","congruent","n",516.103677,"j","j","right","(862, 362)",301,1,515.941821641498,-102.925326862888,"2455.4",434,4,1,1
"pilot3_4",15,"left","SHINEd_PencilSharpener.jpg","congruent","m",886.828855,"f","f","left","(148, 362)",74,1,884.681573910546,265.81442540616,"1491.37",367,3,0,1
"pilot3_4",62,"left","SHINEd_PictureFrame.jpg","congruent","m",499.420744,"f","f","left","(148, 362)",222,1,498.287756490489,-120.579392013897,"1693.55",335,4,1,1
"pilot3_4",33,"right","SHINEd_Pineapple.jpg","congruent","n",480.473442,"j","j","right","(862, 362)",353,1,478.71461377095,-140.152534733436,"1158.14",244,3,1,1
"pilot3_4",101,"left","SHINEd_Pumpkin.jpg","incongruent","n",547.161517,"j","j","right","(148, 362)",294,1,546.870177354697,-71.9969711496888,"1366.33",255,4,1,1
"pilot3_4",134,"right","SHINEd_Quartz.jpg","congruent","n",0,".","j","right","(862, 362)",401,0,0.420823932103985,-618.446324572282,"4119.32",413,4,1,1
"pilot3_4",14,"left","SHINEd_Radish.jpg","incongruent","n",717.043413,"j","j","right","(148, 362)",242,1,714.874551196079,96.007402691693,"1375.83",177,4,1,1
"pilot3_4",44,"left","SHINEd_RamAnimal.jpg","incongruent","n",839.994566,"j","j","right","(148, 362)",454,1,838.473125630085,219.605977125699,"4381.52",96,4,1,1
"pilot3_4",63,"right","SHINEd_RecordPlayer.jpg","incongruent","m",663.002555,"f","f","left","(862, 362)",149,1,661.891148204956,43.0239997005699,"1160.05",449,4,1,1
"pilot3_4",75,"left","SHINEd_RollerBlade.jpg","congruent","m",641.173463,"f","f","left","(148, 362)",178,1,640.321024778558,21.4538762741724,"1767.03",343,2,0,NA
"pilot3_4",166,"right","SHINEd_Ruler_Wooden.jpg","incongruent","m",435.760564,"f","f","left","(862, 362)",73,1,436.871970795044,-181.995177709342,"1053.39",236,4,1,1
"pilot3_4",108,"right","SHINEd_Saw.jpg","incongruent","m",561.169948,"f","f","left","(862, 362)",33,1,561.029673355965,-57.8374751484207,"2134.59",382,3,1,1
"pilot3_4",118,"left","SHINEd_Scooter.jpg","congruent","m",627.447076,"f","f","left","(148, 362)",174,1,627.522608500634,8.65545999624812,"1615.56",196,4,1,1
"pilot3_4",136,"left","SHINEd_Seashell_BayScallop.jpg","incongruent","n",668.617091,"j","j","right","(148, 362)",270,1,669.081076361038,50.2139278566518,"2509.82",323,3,0,1
"pilot3_4",188,"right","SHINEd_ShoppingCart.jpg","incongruent","m",567.151009,"f","f","left","(862, 362)",109,1,568.737191513315,-50.1299569910706,"4089.29",194,3,0,1
"pilot3_4",215,"right","SHINEd_Skates.jpg","incongruent","m",711.387743,"f","f","left","(862, 362)",125,1,713.556604803921,94.689456299535,"1832.77",109,4,1,1
"pilot3_4",36,"left","SHINEd_SkullDeer.jpg","incongruent","n",508.811088,"f","j","right","(148, 362)",278,0,507.11700191435,-111.750146590036,"23437.34",3,2,0,NA
"pilot3_4",156,"left","SHINEd_Slide.jpg","congruent","m",427.836699,"f","f","left","(148, 362)",82,1,428.732298650375,-190.134849854011,"1138.57",318,4,1,1
"pilot3_4",92,"left","SHINEd_Slippers.jpg","congruent","m",655.614701,"f","f","left","(148, 362)",154,1,655.129134924495,36.2619864201093,"1536.29",301,4,1,1
"pilot3_4",109,"right","SHINEd_Snail.jpg","congruent","n",628.186281,"j","j","right","(862, 362)",241,1,628.067587070432,9.2004385660462,"1928.44",243,4,1,1
"pilot3_4",22,"left","SHINEd_Starfish.jpg","incongruent","n",575.797827,"j","j","right","(148, 362)",378,1,573.801610911814,-45.065537592572,"1951.48",142,4,1,1
"pilot3_4",49,"left","SHINEd_Swing_Child.jpg","congruent","m",891.834443,"j","f","left","(148, 362)",166,0,890.420906202419,271.553757698034,"2113.48",28,2,0,NA
"pilot3_4",189,"right","SHINEd_Switch_LightWhite.jpg","incongruent","m",650.619371,"f","f","left","(862, 362)",57,1,652.227134227782,33.3599857233963,"951.57",381,4,1,1
"pilot3_4",167,"left","SHINEd_Teapot.jpg","congruent","m",657.276974,"f","f","left","(148, 362)",214,1,658.409961509511,39.542813005125,"959.65",55,4,1,1
"pilot3_4",176,"left","SHINEd_TissueBox.jpg","congruent","m",628.688906,"f","f","left","(148, 362)",50,1,630.016119939713,11.1489714353268,"4431.41",191,4,1,1
"pilot3_4",151,"right","SHINEd_Toad.jpg","congruent","n",622.08318,"f","j","right","(862, 362)",441,0,622.870876078041,4.00372757365495,"1282.56",357,4,1,1
"pilot3_4",143,"left","SHINEd_Tomato.jpg","incongruent","n",517.756452,"j","j","right","(148, 362)",450,1,518.371502362306,-100.49564614208,"1490.61",54,3,1,1
"pilot3_4",27,"right","SHINEd_Tree_Fir.jpg","congruent","n",634.640037,"j","j","right","(862, 362)",229,1,632.751724484148,13.8845759797624,"2223.07",121,4,1,1
"pilot3_4",99,"right","SHINEd_Turtle.jpg","congruent","n",576.741516,"f","j","right","(862, 362)",305,0,576.407014925763,-42.4601335786225,"1896.12",22,4,1,1
"pilot3_4",171,"left","SHINEd_USBKey.jpg","congruent","m",760.512582,"f","f","left","(148, 362)",90,1,761.731892367378,142.864743862992,"5221.28",308,2,1,NA
"pilot3_4",65,"right","SHINEd_Vase_Decorative copy.jpg","incongruent","m",512.559658,"f","f","left","(862, 362)",221,1,511.49141263389,-107.375735870496,"1448.55",442,4,1,1
"pilot3_4",163,"right","SHINEd_Vest.jpg","incongruent","m",552.68304,"f","f","left","(862, 362)",5,1,553.729704651643,-65.1374438527425,"1089.41",163,4,1,1
"pilot3_4",114,"right","SHINEd_WatermelonSlice.jpg","congruent","n",561.619073,"j","j","right","(862, 362)",325,1,561.608282642766,-57.2588658616195,"1476.16",68,3,1,1
"pilot3_4",87,"left","SHINEd_Weights_Dumbells.jpg","congruent","m",548.636524,"f","f","left","(148, 362)",22,1,548.043054352161,-70.8240941522251,"1206.56",257,4,1,1
"pilot3_4",68,"right","SHINEd_Wheel_Steering.jpg","incongruent","m",0,".","f","left","(862, 362)",185,0,-1.0035032227097,-619.870651727096,"1677.93",126,4,1,1
"pilot3_4",41,"left","SHINEd_accordion.jpg","congruent","m",803.216307,"f","f","left","(148, 362)",10,1,801.630124486685,182.762975982299,"1003.57",293,4,1,1
"pilot3_4",149,"left","SHINEd_airpump.jpg","congruent","m",653.56101,"f","f","left","(148, 362)",114,1,654.305544649107,35.4383961447212,"721.97",230,3,0,1
"pilot3_4",21,"left","SHINEd_antlers.jpg","incongruent","n",842.400675,"j","j","right","(148, 362)",418,1,840.382878197347,221.515729692961,"1293.52",279,4,1,1
"pilot3_4",7,"right","SHINEd_artichoke.jpg","congruent","n",863.861368,"j","j","right","(862, 362)",453,1,861.541441194811,242.674292690425,"1798.72",331,3,1,1
"pilot3_4",228,"left","SHINEd_avocado.jpg","incongruent","n",528.260464,"j","j","right","(148, 362)",394,1,530.70987509199,-88.1572734123956,"1149.35",401,4,1,1
"pilot3_4",206,"left","SHINEd_brownbeans.jpg","incongruent","n",491.75789,"j","j","right","(148, 362)",366,1,493.732525373719,-125.134623130667,"1954.46",67,3,1,1
"pilot3_4",94,"right","SHINEd_brusselsprouts.jpg","congruent","n",666.019536,"j","j","right","(862, 362)",265,1,665.577131353429,46.7099828490431,"2071.86",99,2,0,NA
"pilot3_4",71,"right","SHINEd_catcus.jpg","congruent","n",728.025849,"f","j","right","(862, 362)",313,0,727.087087920691,108.219939416305,"1341.33",227,3,1,1
"pilot3_4",111,"right","SHINEd_catfish.jpg","congruent","n",661.404287,"j","j","right","(862, 362)",361,1,661.328754499366,42.4616059949799,"4078.31",372,3,0,1
"pilot3_4",197,"right","SHINEd_cheetah.jpg","congruent","n",472.376647,"j","j","right","(862, 362)",245,1,474.157055943517,-144.710092560869,"2195.67",370,4,1,1
"pilot3_4",164,"right","SHINEd_cottonplant.jpg","congruent","n",637.176654,"j","j","right","(862, 362)",297,1,638.24489936611,19.3777508617244,"1142.26",302,4,1,1
"pilot3_4",138,"left","SHINEd_couch.jpg","congruent","m",0,".","f","left","(148, 362)",202,0,0.507146789971557,-618.360001714414,"1376.16",211,4,1,1
"pilot3_4",3,"right","SHINEd_dinosaur fossil.jpg","congruent","n",518.568167,"j","j","right","(862, 362)",377,1,516.161917336943,-102.705231167443,"2336.71",189,2,1,NA
"pilot3_4",198,"left","SHINEd_discoball.jpg","congruent","m",514.886465,"f","f","left","(148, 362)",226,1,516.688454657984,-102.178693846402,"3405.12",130,4,1,1
"pilot3_4",155,"right","SHINEd_donkey.jpg","congruent","n",486.657052,"j","j","right","(862, 362)",409,1,487.531070935908,-131.336077568477,"1199.62",338,3,1,1
"pilot3_4",13,"right","SHINEd_dragonfruit.jpg","congruent","n",640.484065,"j","j","right","(862, 362)",437,1,638.293622481612,19.4264739772261,"1110.08",164,4,1,1
"pilot3_4",81,"left","SHINEd_durian.jpg","incongruent","n",546.215316,"j","j","right","(148, 362)",374,1,545.49236206536,-73.3747864390263,"1142.46",391,3,0,1
"pilot3_4",218,"left","SHINEd_eucalyptus.jpg","incongruent","n",803.088727,"j","j","right","(148, 362)",282,1,805.322330947321,186.455182442936,"2092.46",112,4,1,1
"pilot3_4",47,"right","SHINEd_fountain.jpg","incongruent","m",515.200629,"f","f","left","(862, 362)",169,1,513.743930773486,-105.1232177309,"3997.58",174,4,0,1
"pilot3_4",130,"left","SHINEd_fox.jpg","incongruent","n",691.991166,"j","j","right","(148, 362)",334,1,692.325667074237,73.4585185698506,"1332.74",304,2,1,NA
"pilot3_4",162,"right","SHINEd_frog.jpg","congruent","n",587.777662,"j","j","right","(862, 362)",345,1,588.802745937176,-30.0644025672094,"1411.82",333,3,1,1
"pilot3_4",142,"right","SHINEd_goldenberry.jpg","congruent","n",577.495864,"j","j","right","(862, 362)",397,1,578.089333647839,-40.7778148565469,"3181.95",15,3,1,1
"pilot3_4",115,"left","SHINEd_grasshopper.jpg","incongruent","n",652.988042,"f","j","right","(148, 362)",286,0,652.998832357233,34.1316838528474,"1993.14",97,3,1,1
"pilot3_4",70,"left","SHINEd_greenapple.jpg","incongruent","n",604.26229,"j","j","right","(148, 362)",410,1,603.301948206224,-15.565200298162,"1566.72",270,2,1,NA
"pilot3_4",12,"left","SHINEd_honeydew.jpg","incongruent","n",658.931431,"j","j","right","(148, 362)",330,1,656.719407767145,37.8522592627592,"2124.16",104,3,0,1
"pilot3_4",203,"right","SHINEd_horse.jpg","congruent","n",509.97871,"j","j","right","(862, 362)",269,1,511.888603230318,-106.978545274068,"1187.62",360,3,0,1
"pilot3_4",1,"left","SHINEd_hyena.jpg","incongruent","n",662.521147,"j","j","right","(148, 362)",422,1,660.071735908014,41.2045874036278,"1344.07",202,3,0,1
"pilot3_4",51,"right","SHINEd_koala.jpg","congruent","n",629.096626,"j","j","right","(862, 362)",365,1,627.726250631353,8.85910212696741,"1127.1",359,3,1,1
"pilot3_4",213,"left","SHINEd_ladybug.jpg","incongruent","n",625.58333,"j","j","right","(148, 362)",238,1,627.709030374987,8.84188187060133,"1465.06",50,4,1,1
"pilot3_4",119,"left","SHINEd_lotusroot.jpg","incongruent","n",629.626207,"j","j","right","(148, 362)",298,1,629.723320215101,10.856171710715,"1209.18",268,4,1,1
"pilot3_4",141,"left","SHINEd_manatee.jpg","incongruent","n",687.810792,"f","j","right","(148, 362)",342,0,688.382680933372,69.5155324289862,"1602.91",42,3,1,1
"pilot3_4",43,"right","SHINEd_mizuna.jpg","congruent","n",531.535265,"j","j","right","(862, 362)",429,1,529.992243915618,-88.8749045887676,"1122.85",345,4,1,1
"pilot3_4",159,"right","SHINEd_mosquito.jpg","congruent","n",512.038627,"j","j","right","(862, 362)",393,1,512.998968793776,-105.86817971061,"7877.14",412,3,1,1
"pilot3_4",126,"left","SHINEd_mushroom_other.jpg","incongruent","n",642.708246,"f","j","right","(148, 362)",426,0,642.956424216369,24.0892757119831,"2138.43",444,2,0,NA
"pilot3_4",102,"right","SHINEd_okapi.jpg","congruent","n",845.873928,"j","j","right","(862, 362)",425,1,845.604169069164,226.737020564778,"24191.45",1,2,1,NA
"pilot3_4",35,"right","SHINEd_orchid.jpg","congruent","n",649.539435,"j","j","right","(862, 362)",261,1,647.823768199883,28.9566196954974,"1090.87",358,4,1,1
"pilot3_4",205,"left","SHINEd_peacockfeather.jpg","incongruent","n",590.839543,"j","j","right","(148, 362)",382,1,592.792597659252,-26.0745508451337,"1379.29",337,2,1,NA
"pilot3_4",37,"right","SHINEd_pickle.jpg","congruent","n",528.836288,"j","j","right","(862, 362)",373,1,527.163782628817,-91.7033658755689,"3569.67",369,3,0,1
"pilot3_4",66,"right","SHINEd_platypus.jpg","congruent","n",635.460254,"j","j","right","(862, 362)",293,1,634.413589348356,15.5464408439705,"1309.51",342,4,1,1
"pilot3_4",55,"left","SHINEd_pomegrant.jpg","incongruent","n",572.934006,"j","j","right","(148, 362)",354,1,571.649953489221,-47.2171950151651,"1383.35",303,3,0,1
"pilot3_4",175,"right","SHINEd_pumpkinseeds-.jpg","congruent","n",433.910188,"j","j","right","(862, 362)",237,1,435.215821225246,-183.65132727914,"3023.37",170,3,0,1
"pilot3_4",145,"left","SHINEd_purple_yam.jpg","incongruent","n",565.647833,"j","j","right","(148, 362)",442,1,566.30604479124,-52.5611037131463,"1427.8",144,3,1,1
"pilot3_4",61,"left","SHINEd_rabbitt.jpg","incongruent","n",463.983823,"j","j","right","(148, 362)",350,1,462.829254776022,-156.037893728364,"844.36",51,4,1,1
"pilot3_4",72,"left","SHINEd_raccoon.jpg","incongruent","n",723.885173,"j","j","right","(148, 362)",262,1,722.967992635158,104.100844130772,"1452.28",118,2,0,NA
"pilot3_4",202,"left","SHINEd_red_Cabbage.jpg","incongruent","n",497.78618,"j","j","right","(148, 362)",230,1,499.674492515852,-119.192655988534,"1182.6",148,4,1,1
"pilot3_4",178,"right","SHINEd_red_panda.jpg","congruent","n",509.340085,"j","j","right","(862, 362)",273,1,510.710460368647,-108.156688135739,"3190.76",37,4,1,1
"pilot3_4",185,"right","SHINEd_rhino horn.jpg","congruent","n",664.29368,"j","j","right","(862, 362)",249,1,665.815120369915,46.9479718655287,"765.36",248,4,1,1
"pilot3_4",158,"left","SHINEd_rose.jpg","incongruent","n",697.866375,"j","j","right","(148, 362)",430,1,698.805136079309,79.9379875749231,"1200.57",63,4,1,1
"pilot3_4",152,"left","SHINEd_scallion.jpg","incongruent","n",642.413905,"j","j","right","(148, 362)",314,1,643.223181792508,24.3560332881219,"7645.94",419,3,1,1
"pilot3_4",192,"left","SHINEd_skeleton-lizard.jpg","incongruent","n",493.635615,"j","j","right","(148, 362)",250,1,495.308120371183,-123.559028133203,"1273.23",40,4,1,1
"pilot3_4",227,"left","SHINEd_skunk.jpg","incongruent","n",581.64011,"j","j","right","(148, 362)",290,1,584.067940377524,-34.7992081268624,"997.82",249,4,1,1
"pilot3_4",17,"right","SHINEd_soil.jpg","congruent","n",0,".","j","right","(862, 362)",289,0,-2.1041196605205,-620.971268164906,"1744.55",91,4,1,1
"pilot3_4",85,"left","SHINEd_spinach.jpg","incongruent","n",461.499521,"j","j","right","(148, 362)",266,1,460.862889923227,-158.004258581159,"1755.76",311,2,1,NA
"pilot3_4",89,"right","SHINEd_starfruit.jpg","congruent","n",627.206257,"j","j","right","(862, 362)",317,1,626.655948781095,7.78880027670873,"4293.9",12,2,1,NA
"pilot3_4",161,"left","SHINEd_treestump.jpg","incongruent","n",646.287384,"j","j","right","(148, 362)",414,1,647.29088722271,28.4237387183237,"1335.66",38,4,1,1
"pilot3_4",59,"right","SHINEd_vanillabean copy.jpg","congruent","n",501.100467,"j","j","right","(862, 362)",329,1,499.902737347088,-118.964411157298,"8343.72",206,2,0,NA
"pilot3_4",32,"left","SHINEd_volcano copy.jpg","incongruent","n",851.827126,"j","j","right","(148, 362)",234,1,850.046717056483,231.179568552097,"2382.6",25,4,1,1
"pilot3_4",132,"right","SHINEd_whale.jpg","congruent","n",610.634854,"j","j","right","(862, 362)",421,1,611.01251650317,-7.85463200121564,"1881.78",105,3,0,1
"pilot3_4",98,"left","SHINEd_wheat_stock.jpg","incongruent","n",466.679881,"j","j","right","(148, 362)",358,1,466.323799211297,-152.543349293089,"1007.58",332,4,1,1
"pilot3_4",140,"right","SHINEd_white_strawberries.jpg","congruent","n",642.687239,"j","j","right","(862, 362)",417,1,643.237547218905,24.3703987145193,"954.34",86,4,1,1
"pilot3_4",150,"right","SHINEd_worm.jpg","congruent","n",523.788448,"j","j","right","(862, 362)",389,1,524.554563363574,-94.3125851408119,"2401.58",156,4,1,1
