"participant","trial_index","screenposition","stimulus","trialtype","classifyenc","rt","response","responsecorrect","responsecorrect_side","screenlocation","stimnum","acc","rtResidual","rtResidualC","rt_rec","trialno_rec","ratingConfidence","acc_rec","memoryHits.hc"
"pilot_14",3,"right","SHINEd_Bag_Camera.jpg","congruent","m",763.316047,"j","j","right","(862, 362)",216,1,773.92942798716,139.908450539792,"1602.31",221,3,1,1
"pilot_14",73,"right","SHINEd_Ball_Football.jpg","congruent","m",592.409699,"j","j","right","(862, 362)",128,1,596.359970847239,-37.6610066001294,"878.35",208,3,0,1
"pilot_14",130,"right","SHINEd_Banana.jpg","incongruent","n",627.821434,"f","f","left","(862, 362)",376,1,626.346031261874,-7.67494618549389,"3272.76",223,2,0,NA
"pilot_14",1,"left","SHINEd_Bandage_Adhesive.jpg","incongruent","m",0,".","j","right","(148, 362)",107,0,10.8037555340203,-623.217221913348,"1389.68",287,3,0,1
"pilot_14",224,"left","SHINEd_Barbecue_Gas.jpg","incongruent","m",521.839649,"j","j","right","(148, 362)",159,1,511.416642559695,-122.604334887674,"3677.51",279,3,1,1
"pilot_14",26,"left","SHINEd_Basket_Plastic.jpg","incongruent","m",505.589401,"j","j","right","(148, 362)",211,1,514.013474698329,-120.007502749039,"823.19",358,3,1,1
"pilot_14",135,"left","SHINEd_Bat_Baseball.jpg","incongruent","m",811.253264,"j","j","right","(148, 362)",127,1,809.301924894737,175.280947447369,"2457.38",138,4,1,1
"pilot_14",215,"left","SHINEd_Bed_Hospital.jpg","incongruent","m",489.642726,"j","j","right","(148, 362)",207,1,480.076405020542,-153.944572426827,"1133.67",412,3,0,1
"pilot_14",101,"left","SHINEd_Belt.jpg","incongruent","m",550.752105,"j","j","right","(148, 362)",195,1,552.037133191271,-81.9838442560979,"1565.62",364,3,0,1
"pilot_14",89,"right","SHINEd_Bib.jpg","congruent","m",738.36994,"j","j","right","(862, 362)",136,1,740.7972154724,106.776238025031,"1473.98",80,4,1,1
"pilot_14",24,"left","SHINEd_Binoculars.jpg","incongruent","m",507.307391,"j","j","right","(148, 362)",199,1,515.921839245184,-118.099138202185,"942.22",434,3,1,1
"pilot_14",177,"right","SHINEd_Bird_CanadianGoose.jpg","incongruent","n",755.305073,"f","f","left","(862, 362)",388,1,749.355868410785,115.334890963416,"1180.32",139,3,0,1
"pilot_14",211,"right","SHINEd_Blackboard.jpg","congruent","m",564.920119,"j","j","right","(862, 362)",72,1,555.734547114251,-78.2864303331169,"1841.47",52,3,0,1
"pilot_14",61,"right","SHINEd_Boar.jpg","incongruent","n",594.480319,"f","f","left","(862, 362)",264,1,599.572838128368,-34.4481393190001,"1046.58",389,3,0,1
"pilot_14",223,"right","SHINEd_Bolt.jpg","congruent","m",694.484967,"j","j","right","(862, 362)",32,1,684.157147833122,50.1361703857537,"2072.94",245,3,1,1
"pilot_14",54,"right","SHINEd_BookShelf.jpg","congruent","m",655.713855,"j","j","right","(862, 362)",204,1,661.47268504236,27.451707594992,"1389.47",379,3,0,1
"pilot_14",13,"right","SHINEd_Boombox.jpg","congruent","m",895.905094,"j","j","right","(862, 362)",92,1,905.566602252886,271.545624805517,"1795.93",170,4,1,1
"pilot_14",94,"right","SHINEd_Boots_KneeHigh.jpg","congruent","m",660.640837,"j","j","right","(862, 362)",152,1,662.592176105263,28.5711986578942,"941.33",430,2,0,NA
"pilot_14",109,"right","SHINEd_Bottle_Bleach.jpg","congruent","m",553.955921,"j","j","right","(862, 362)",212,1,554.479451003851,-79.5415264435175,"1208.35",284,3,0,1
"pilot_14",188,"left","SHINEd_Bowtie.jpg","incongruent","m",859.213996,"j","j","right","(148, 362)",191,1,852.217731403083,218.196753955714,"1959.56",440,3,1,1
"pilot_14",157,"left","SHINEd_Box_GiftTopView.jpg","incongruent","m",587.244114,"j","j","right","(148, 362)",219,1,583.198654879334,-50.8223225680349,"942.44",413,3,1,1
"pilot_14",144,"right","SHINEd_Box_Package.jpg","congruent","m",619.327817,"j","j","right","(862, 362)",220,1,616.51979243389,-17.5011850134781,"1239.04",305,2,0,NA
"pilot_14",32,"left","SHINEd_Box_Staples.jpg","incongruent","m",441.225348,"j","j","right","(148, 362)",67,1,449.078298057764,-184.942679389604,"2205.59",154,4,1,1
"pilot_14",139,"right","SHINEd_Buffalo.jpg","incongruent","n",496.590926,"f","f","left","(862, 362)",432,1,494.258837801028,-139.762139646341,"3014.45",141,3,0,1
"pilot_14",17,"right","SHINEd_Bus_DoubleDecker.jpg","congruent","m",743.950402,"j","j","right","(862, 362)",184,1,753.231161159176,119.210183711808,"1734.42",390,2,1,NA
"pilot_14",146,"left","SHINEd_Bus_School.jpg","incongruent","m",499.762455,"j","j","right","(148, 362)",171,1,496.764055887035,-137.256921560333,"1405.83",107,4,1,1
"pilot_14",131,"right","SHINEd_Button.jpg","congruent","m",653.506064,"j","j","right","(862, 362)",4,1,651.935473988447,17.9144965410787,"1383.2",239,3,0,1
"pilot_14",112,"left","SHINEd_CDstack.jpg","incongruent","m",635.106956,"j","j","right","(148, 362)",15,1,635.344924183569,1.32394673620014,"2063.95",84,4,1,1
"pilot_14",12,"left","SHINEd_Cable_AudioSplitter.jpg","incongruent","m",612.921063,"f","j","right","(148, 362)",91,0,622.677758526313,-11.3432189210553,"878.22",285,3,0,1
"pilot_14",216,"left","SHINEd_Cage_Bird.jpg","incongruent","m",429.754774,"j","j","right","(148, 362)",123,1,420.093265747114,-213.927711700254,"1262.69",306,4,1,1
"pilot_14",117,"right","SHINEd_Camel_Bactrian.jpg","incongruent","n",547.429901,"f","f","left","(862, 362)",344,1,547.191932816431,-86.8290446309371,"1252.18",270,4,1,1
"pilot_14",99,"right","SHINEd_CanOpener.jpg","congruent","m",663.28526,"j","j","right","(862, 362)",160,1,664.760662738125,30.739685290757,"1100.83",342,3,1,1
"pilot_14",74,"left","SHINEd_Candleholder_LampShaped.jpg","incongruent","m",651.205485,"j","j","right","(148, 362)",111,1,655.060569573811,21.0395921264431,"2528.81",85,2,1,NA
"pilot_14",38,"left","SHINEd_CapGraduation.jpg","incongruent","m",670.535191,"j","j","right","(148, 362)",187,1,677.8170174172,43.7960399698312,"1664.76",94,3,0,1
"pilot_14",16,"left","SHINEd_Car_Sedan.jpg","incongruent","m",733.229542,"j","j","right","(148, 362)",183,1,742.605488432603,108.584510985235,"943.44",438,3,0,1
"pilot_14",25,"right","SHINEd_Card_TwoSpade.jpg","congruent","m",749.408397,"j","j","right","(862, 362)",88,1,757.927657971756,123.906680524388,"1503.94",218,4,1,1
"pilot_14",149,"left","SHINEd_Caribou.jpg","congruent","n",624.025941,"f","f","left","(148, 362)",435,1,620.741980066753,-13.2789973806153,"1042",254,2,0,NA
"pilot_14",80,"right","SHINEd_Cassette_Audio.jpg","congruent","m",577.729084,"j","j","right","(862, 362)",148,1,581.013044933247,-53.0079325141216,"782.21",295,3,0,1
"pilot_14",2,"left","SHINEd_Cauliflower.jpg","congruent","n",887.125057,"j","f","left","(148, 362)",291,0,897.833625260588,263.812647813219,"2141.69",220,2,1,NA
"pilot_14",209,"right","SHINEd_Celery.jpg","incongruent","n",670.05502,"f","f","left","(862, 362)",272,1,661.059822661106,27.038845213738,"1799.08",25,4,1,1
"pilot_14",114,"left","SHINEd_Chimpanzee.jpg","congruent","n",641.160923,"f","f","left","(148, 362)",255,1,641.208516636714,7.18753918934531,"1502.99",34,2,1,NA
"pilot_14",27,"right","SHINEd_CinderBlock.jpg","congruent","m",567.327736,"j","j","right","(862, 362)",108,1,575.656622424901,-58.364355022467,"1268.96",260,4,1,1
"pilot_14",166,"right","SHINEd_Clam.jpg","incongruent","n",533.50939,"f","f","left","(862, 362)",340,1,528.607245418487,-105.413732028882,"2790.2",16,4,1,1
"pilot_14",116,"right","SHINEd_Clothespin_Red.jpg","congruent","m",752.022652,"j","j","right","(862, 362)",60,1,751.879871089859,117.85889364249,"1396.49",86,4,1,1
"pilot_14",202,"right","SHINEd_CoffeeBeans.jpg","incongruent","n",636.953479,"f","f","left","(862, 362)",332,1,628.624592575099,-5.39638487226991,"1040.67",398,4,1,1
"pilot_14",35,"right","SHINEd_Cologne.jpg","congruent","m",660.356927,"j","j","right","(862, 362)",116,1,667.924315237482,33.9033377901135,"1038.19",391,4,1,1
"pilot_14",187,"right","SHINEd_CompassCardinal.jpg","congruent","m",599.841491,"j","j","right","(862, 362)",40,1,592.94041367651,-41.0805637708582,"1088.49",71,4,1,1
"pilot_14",210,"left","SHINEd_Coral.jpg","congruent","n",497.815353,"f","f","left","(148, 362)",455,1,488.724968387679,-145.296009059689,"1027.31",273,4,1,1
"pilot_14",79,"right","SHINEd_Cougar.jpg","incongruent","n",501.555435,"f","f","left","(862, 362)",276,1,504.934583206674,-129.086394240694,"1200.87",174,4,1,1
"pilot_14",128,"right","SHINEd_Cow.jpg","incongruent","n",572.351405,"f","f","left","(862, 362)",320,1,571.06637680873,-62.954600638639,"4053.01",2,2,0,NA
"pilot_14",191,"left","SHINEd_Crab.jpg","congruent","n",599.317886,"f","f","left","(148, 362)",259,1,592.0360595828,-41.984917864568,"877.65",395,4,1,1
"pilot_14",212,"left","SHINEd_Crayon_Green.jpg","incongruent","m",455.311673,"j","j","right","(148, 362)",63,1,446.030913840824,-187.990063606544,"790.21",331,3,0,1
"pilot_14",182,"right","SHINEd_Cucumber.jpg","incongruent","n",532.156336,"f","f","left","(862, 362)",364,1,525.731195043647,-108.289782403721,"1408.45",29,3,0,1
"pilot_14",44,"left","SHINEd_Cup_Bathroom.jpg","incongruent","m",731.595154,"j","j","right","(148, 362)",51,1,738.305856776635,104.284879329266,"1237.14",326,3,1,1
"pilot_14",69,"right","SHINEd_Dart.jpg","congruent","m",610.597245,"j","j","right","(862, 362)",20,1,614.928265940949,-19.0927115064196,"2792.36",79,2,0,NA
"pilot_14",77,"right","SHINEd_Dill.jpg","incongruent","n",486.55591,"f","f","left","(862, 362)",256,1,490.125432753529,-143.895544693839,"3440.77",236,2,1,NA
"pilot_14",46,"right","SHINEd_DoubleBass.jpg","congruent","m",722.2756,"j","j","right","(862, 362)",8,1,728.79592822978,94.7749507824116,"1408.6",210,4,1,1
"pilot_14",170,"right","SHINEd_DrainPlug.jpg","congruent","m",523.479262,"j","j","right","(862, 362)",140,1,518.196368324777,-115.824609122592,"1304.84",209,4,1,1
"pilot_14",19,"left","SHINEd_Dress_Blue.jpg","incongruent","m",576.113887,"j","j","right","(148, 362)",3,1,585.204271612321,-48.8167058350474,"1031.33",367,3,1,1
"pilot_14",21,"left","SHINEd_Dresser.jpg","incongruent","m",605.932833,"j","j","right","(148, 362)",203,1,614.832843065466,-19.1881343819023,"1860.46",258,1,0,NA
"pilot_14",143,"left","SHINEd_DryRack_Dishes.jpg","incongruent","m",646.841347,"j","j","right","(148, 362)",135,1,644.128509707318,10.1075322599494,"1557.55",137,4,1,1
"pilot_14",137,"right","SHINEd_Earrings_Dangling.jpg","congruent","m",578.971391,"j","j","right","(862, 362)",196,1,576.829677347882,-57.1913000994859,"1561.09",103,3,1,1
"pilot_14",222,"left","SHINEd_Eggplant.jpg","congruent","n",740.184122,"f","f","left","(148, 362)",267,1,729.951490106549,95.9305126591811,"5492.88",181,4,1,1
"pilot_14",197,"right","SHINEd_EspressoMachine.jpg","congruent","m",660.127541,"j","j","right","(862, 362)",156,1,652.274590942236,18.2536134948673,"2151.38",66,4,1,1
"pilot_14",127,"right","SHINEd_Exercise_Bike.jpg","congruent","m",591.379613,"j","j","right","(862, 362)",24,1,590.189772082157,-43.8312053652116,"3607.69",116,1,0,NA
"pilot_14",20,"right","SHINEd_Fan_Ceiling.jpg","congruent","m",875.823767,"j","j","right","(862, 362)",48,1,884.818964338894,250.797986891525,"3700.14",362,3,0,1
"pilot_14",81,"left","SHINEd_Fence_Wooden.jpg","incongruent","m",612.533699,"j","j","right","(148, 362)",163,1,615.722472659819,-18.298504787549,"774.98",207,3,0,1
"pilot_14",87,"left","SHINEd_Ferret.jpg","congruent","n",595.487608,"f","f","left","(148, 362)",239,1,598.105258019255,-35.9157194281137,"968.07",189,3,0,1
"pilot_14",132,"right","SHINEd_FireExtinguisher.jpg","congruent","m",769.09619,"j","j","right","(862, 362)",112,1,767.43041271502,133.409435267651,"1197.15",334,3,0,1
"pilot_14",100,"left","SHINEd_FireHydrant.jpg","incongruent","m",620.85438,"j","j","right","(148, 362)",167,1,622.234595464698,-11.7863819826705,"1157.84",211,3,0,1
"pilot_14",173,"left","SHINEd_Fish_Swordfish.jpg","congruent","n",548.703383,"f","f","left","(148, 362)",331,1,543.134927504494,-90.886049942874,"1358.56",356,2,1,NA
"pilot_14",205,"left","SHINEd_FloppyDisk.jpg","incongruent","m",576.421199,"j","j","right","(148, 362)",147,1,567.806750754816,-66.2142266925523,"1022.8",422,3,1,1
"pilot_14",204,"left","SHINEd_Flower_Daisy.jpg","congruent","n",685.061032,"f","f","left","(148, 362)",351,1,676.541771028244,42.5207935808751,"1206.86",244,4,0,1
"pilot_14",138,"right","SHINEd_Fridge.jpg","congruent","m",694.357966,"j","j","right","(862, 362)",44,1,692.121065074455,58.1000876270866,"1461.24",133,4,1,1
"pilot_14",169,"right","SHINEd_Garbage_GreenBin.jpg","congruent","m",686.658166,"j","j","right","(862, 362)",144,1,681.470459598204,47.4494821508358,"1021.83",193,3,0,1
"pilot_14",28,"right","SHINEd_GasStation.jpg","congruent","m",626.346336,"j","j","right","(862, 362)",168,1,634.580035151474,0.559057704105562,"1381.61",375,3,0,1
"pilot_14",45,"right","SHINEd_Ginger.jpg","incongruent","n",904.37857,"f","f","left","(862, 362)",236,1,910.994085503207,276.973108055839,"1059.01",365,3,1,1
"pilot_14",82,"right","SHINEd_Glasses_Reading.jpg","congruent","m",640.225187,"j","j","right","(862, 362)",200,1,643.318773386392,9.29779593902355,"1250.81",355,3,0,1
"pilot_14",49,"right","SHINEd_Golf_Club.jpg","congruent","m",533.570516,"j","j","right","(862, 362)",132,1,539.805282409498,-94.2156950378707,"1617.02",180,3,0,1
"pilot_14",84,"right","SHINEd_Guitar_Acoustic.jpg","congruent","m",584.045498,"j","j","right","(862, 362)",12,1,586.948709839537,-47.0722676078314,"1918.11",182,3,0,1
"pilot_14",37,"right","SHINEd_Hammer.jpg","congruent","m",611.238604,"j","j","right","(862, 362)",36,1,618.615617690627,-15.4053597567414,"858.97",343,3,1,1
"pilot_14",140,"right","SHINEd_Hammock.jpg","congruent","m",604.343483,"j","j","right","(862, 362)",208,1,601.9162075276,-32.1047699197683,"2333.57",385,4,1,1
"pilot_14",56,"right","SHINEd_Hand.jpg","incongruent","n",597.84448,"f","f","left","(862, 362)",284,1,603.412935495506,-30.6080419518629,"1230.6",387,4,1,1
"pilot_14",153,"left","SHINEd_Harp.jpg","incongruent","m",630.662448,"j","j","right","(148, 362)",11,1,626.997737973043,-7.02323947432506,"1252.83",456,4,1,1
"pilot_14",78,"right","SHINEd_Hat_Explorer.jpg","congruent","m",481.995834,"j","j","right","(862, 362)",188,1,485.470169480102,-148.550807967267,"1294.36",108,2,0,NA
"pilot_14",47,"right","SHINEd_Hazelnut.jpg","incongruent","n",886.251223,"f","f","left","(862, 362)",252,1,892.676363956353,258.655386508984,"864.68",278,4,1,1
"pilot_14",52,"right","SHINEd_HedgeShears.jpg","congruent","m",623.80635,"j","j","right","(862, 362)",28,1,629.755554589215,-4.26542285815314,"1437.31",60,3,0,1
"pilot_14",15,"left","SHINEd_Hedgehog.jpg","congruent","n",697.189502,"f","f","left","(148, 362)",243,1,706.660635706031,72.6396582586624,"1556.45",145,2,0,NA
"pilot_14",92,"left","SHINEd_Hippopotamus.jpg","congruent","n",653.412047,"f","f","left","(148, 362)",367,1,655.553760652117,21.5327832047491,"3232.34",256,3,0,1
"pilot_14",103,"right","SHINEd_HorseshoeCrab.jpg","incongruent","n",695.254799,"f","f","left","(862, 362)",260,1,696.349452644416,62.3284751970472,"1446.98",124,2,0,NA
"pilot_14",66,"left","SHINEd_Iguana.jpg","congruent","n",559.369712,"f","f","left","(148, 362)",387,1,563.986294761231,-70.0346826861373,"1071.65",227,3,0,1
"pilot_14",221,"right","SHINEd_IroningBoard.jpg","congruent","m",712.474287,"j","j","right","(862, 362)",52,1,702.336842379977,68.3158649326086,"1397.28",146,3,0,1
"pilot_14",91,"right","SHINEd_Kangaroo.jpg","incongruent","n",466.784682,"j","f","left","(862, 362)",312,0,469.021582925545,-164.999394521823,"1935.54",111,1,0,NA
"pilot_14",121,"left","SHINEd_KeyHook_Empty.jpg","incongruent","m",610.322313,"j","j","right","(148, 362)",223,1,609.703595722722,-24.3173817246468,"2138.05",269,2,1,NA
"pilot_14",155,"right","SHINEd_Key_Car.jpg","congruent","m",661.251807,"j","j","right","(862, 362)",176,1,657.396722426188,23.37574497882,"1468.42",96,3,0,1
"pilot_14",186,"left","SHINEd_KiddiePool.jpg","incongruent","m",699.784822,"j","j","right","(148, 362)",87,1,692.978931949938,58.9579545025692,"3599.49",78,3,0,1
"pilot_14",213,"left","SHINEd_KitchenCloth.jpg","incongruent","m",836.136348,"j","j","right","(148, 362)",143,1,826.760401567397,192.739424120028,"814.1",444,3,0,1
"pilot_14",165,"right","SHINEd_Leaf_Green.jpg","incongruent","n",630.814088,"f","f","left","(862, 362)",448,1,626.007130691914,-8.01384675545447,"3742.45",319,3,0,1
"pilot_14",199,"left","SHINEd_LetterMail.jpg","incongruent","m",617.82517,"j","j","right","(148, 362)",75,1,609.781845395381,-24.2391320519876,"719.68",263,3,0,1
"pilot_14",70,"right","SHINEd_Lettuce_GreenLeaf.jpg","incongruent","n",598.689518,"f","f","left","(862, 362)",248,1,602.925351667521,-31.0956257798471,"1136.16",167,4,1,1
"pilot_14",194,"right","SHINEd_LifeJacket_BlueYellow.jpg","congruent","m",728.364265,"j","j","right","(862, 362)",16,1,720.796876762518,86.7758993151497,"3821.75",35,2,0,NA
"pilot_14",53,"left","SHINEd_LightBulb_White.jpg","incongruent","m",636.557623,"j","j","right","(148, 362)",47,1,642.411640315788,8.3906628684195,"2031.32",126,2,0,NA
"pilot_14",172,"left","SHINEd_Light_Siren.jpg","incongruent","m",768.819463,"j","j","right","(148, 362)",95,1,763.346194777922,129.325217330553,"1072.06",272,4,1,1
"pilot_14",97,"right","SHINEd_Light_Traffic.jpg","congruent","m",767.934326,"j","j","right","(862, 362)",180,1,769.60010328498,135.579125837612,"2341.49",195,3,0,1
"pilot_14",64,"right","SHINEd_Lighter_Yellow.jpg","congruent","m",599.913016,"j","j","right","(862, 362)",104,1,604.719973308086,-29.3010041392825,"1447.89",392,3,0,1
"pilot_14",174,"right","SHINEd_Lion.jpg","incongruent","n",695.708534,"f","f","left","(862, 362)",316,1,690.044891231067,56.0239137836985,"965.27",409,3,0,1
"pilot_14",50,"right","SHINEd_Lobster.jpg","incongruent","n",528.768845,"f","f","left","(862, 362)",288,1,534.90842413607,-99.1125533112981,"1147.08",325,3,1,1
"pilot_14",86,"right","SHINEd_Lock_Combination.jpg","congruent","m",504.568655,"j","j","right","(862, 362)",64,1,507.281492292682,-126.739485154686,"1670.82",9,3,0,1
"pilot_14",65,"left","SHINEd_MalletJudge.jpg","incongruent","m",554.713877,"j","j","right","(148, 362)",35,1,559.425647034659,-74.5953304127099,"901.63",228,3,0,1
"pilot_14",218,"left","SHINEd_MannequinBust.jpg","incongruent","m",621.350162,"j","j","right","(148, 362)",103,1,611.498279200259,-22.5226982471091,"1389.75",452,4,1,1
"pilot_14",93,"left","SHINEd_Microwave.jpg","incongruent","m",544.532628,"j","j","right","(148, 362)",155,1,546.57915437869,-87.4418230686783,"1039.16",253,4,0,1
"pilot_14",145,"left","SHINEd_MousepadAndMouse.jpg","incongruent","m",597.910086,"j","j","right","(148, 362)",99,1,595.006874160463,-39.0141032869056,"1052.19",307,4,1,1
"pilot_14",163,"left","SHINEd_Notepad.jpg","incongruent","m",560.780715,"j","j","right","(148, 362)",71,1,556.164132238769,-77.8568452085996,"1293.89",150,3,0,1
"pilot_14",160,"left","SHINEd_Nuts_Peanuts.jpg","congruent","n",605.829928,"f","f","left","(148, 362)",235,1,601.498907059051,-32.5220703883172,"1069.3",217,3,0,1
"pilot_14",158,"left","SHINEd_Oars.jpg","incongruent","m",551.745384,"j","j","right","(148, 362)",19,1,547.604737605906,-86.4162398414624,"1353.07",455,3,0,1
"pilot_14",167,"left","SHINEd_Olives.jpg","congruent","n",543.567848,"f","f","left","(148, 362)",419,1,538.570516145059,-95.4504613023093,"1011.86",349,3,0,1
"pilot_14",30,"right","SHINEd_Oneholepunch.jpg","congruent","m",737.000473,"j","j","right","(862, 362)",76,1,745.043797604619,111.022820157251,"854.7",400,3,1,1
"pilot_14",175,"left","SHINEd_OnionRed.jpg","congruent","n",827.487471,"f","f","left","(148, 362)",383,1,821.72864095764,187.707663510271,"918.76",393,4,1,1
"pilot_14",141,"left","SHINEd_Organ.jpg","incongruent","m",696.229588,"j","j","right","(148, 362)",7,1,693.707125254173,59.6861478068043,"1205.87",249,4,1,1
"pilot_14",111,"right","SHINEd_Outhouse.jpg","congruent","m",536.892258,"j","j","right","(862, 362)",164,1,537.225413456996,-96.7955639903724,"1949.56",312,3,1,1
"pilot_14",207,"left","SHINEd_Owl.jpg","congruent","n",695.614332,"f","f","left","(148, 362)",407,1,686.809509207961,52.7885317605928,"2080.03",87,3,1,1
"pilot_14",33,"left","SHINEd_Panda.jpg","congruent","n",556.71148,"f","f","left","(148, 362)",251,1,564.469242784337,-69.5517346630316,"1182.63",397,4,1,1
"pilot_14",8,"left","SHINEd_PaperCutter.jpg","incongruent","m",647.436608,"j","j","right","(148, 362)",31,1,657.574052620023,23.5530751726545,"1870.97",262,3,0,1
"pilot_14",208,"right","SHINEd_PassionFruit.jpg","incongruent","n",946.360425,"f","f","left","(862, 362)",452,1,937.460414934534,303.439437487165,"1470.82",120,4,1,1
"pilot_14",134,"left","SHINEd_Peach.jpg","congruent","n",583.738489,"f","f","left","(148, 362)",323,1,581.882337168165,-52.1386402792037,"1005.92",297,4,1,1
"pilot_14",106,"right","SHINEd_Pear_Yellow.jpg","incongruent","n",679.693546,"f","f","left","(862, 362)",416,1,680.502637824133,46.4816603767648,"2000.76",435,3,1,1
"pilot_14",214,"right","SHINEd_PencilCase.jpg","congruent","m",686.14842,"j","j","right","(862, 362)",68,1,676.677286293969,42.6563088466007,"1409.54",213,4,1,1
"pilot_14",184,"right","SHINEd_Pepper_Chili.jpg","incongruent","n",573.454479,"f","f","left","(862, 362)",240,1,566.838963496793,-67.1820139505759,"1040.8",408,3,1,1
"pilot_14",42,"right","SHINEd_Pepper_Green.jpg","incongruent","n",604.614418,"f","f","left","(862, 362)",372,1,611.51549532349,-22.5054821238786,"972.87",340,3,1,1
"pilot_14",83,"right","SHINEd_Pig.jpg","incongruent","n",571.975606,"f","f","left","(862, 362)",424,1,574.974005112965,-59.0469723344039,"1805.22",186,4,1,1
"pilot_14",129,"right","SHINEd_Pitcher.jpg","congruent","m",663.121231,"j","j","right","(862, 362)",56,1,661.741015535302,27.7200380879336,"798.5",399,3,0,1
"pilot_14",14,"left","SHINEd_Playard.jpg","incongruent","m",659.478847,"j","j","right","(148, 362)",59,1,669.045167979458,35.0241905320898,"1524.1",414,3,0,1
"pilot_14",206,"right","SHINEd_Plum.jpg","incongruent","n",810.764015,"f","f","left","(862, 362)",244,1,802.054379481389,168.03340203402,"2052.95",140,3,0,1
"pilot_14",39,"left","SHINEd_Potato.jpg","congruent","n",609.426058,"f","f","left","(148, 362)",423,1,616.612697143772,-17.4082803035963,"886.75",401,3,1,1
"pilot_14",154,"left","SHINEd_Puffin.jpg","congruent","n",737.737897,"f","f","left","(148, 362)",231,1,733.977999699616,99.9570222522474,"1048.37",386,3,0,1
"pilot_14",88,"left","SHINEd_Razor.jpg","incongruent","m",502.680311,"j","j","right","(148, 362)",119,1,505.202773745827,-128.818203701541,"2514.92",142,3,0,1
"pilot_14",105,"right","SHINEd_RibbonSpool.jpg","congruent","m",620.614742,"j","j","right","(862, 362)",80,1,621.519021097561,-12.5019563498077,"1518.68",59,4,1,1
"pilot_14",107,"left","SHINEd_Sand.jpg","congruent","n",610.711954,"j","f","left","(148, 362)",279,0,611.425858550706,-22.5951188966626,"1237.29",184,4,1,1
"pilot_14",57,"right","SHINEd_ScannerShoplifting.jpg","congruent","m",626.117984,"j","j","right","(862, 362)",100,1,631.591252222078,-2.42972522529033,"1247.33",127,4,1,1
"pilot_14",95,"right","SHINEd_Scorpion.jpg","incongruent","n",512.182777,"f","f","left","(862, 362)",396,1,514.038928831835,-119.982048615533,"2248.79",160,3,0,1
"pilot_14",226,"left","SHINEd_Seahorse.jpg","congruent","n",555.228935,"f","f","left","(148, 362)",347,1,544.61555401284,-89.4054234345286,"2414.2",37,3,1,1
"pilot_14",62,"left","SHINEd_Seal_animal.jpg","congruent","n",493.74106,"f","f","left","(148, 362)",379,1,498.738391854941,-135.282585592428,"2221.35",396,3,1,1
"pilot_14",122,"left","SHINEd_Seashell_RoseMurex.jpg","congruent","n",574.872503,"f","f","left","(148, 362)",327,1,574.158598449294,-59.8623789980742,"2772.94",100,3,1,1
"pilot_14",185,"right","SHINEd_Shampoo.jpg","congruent","m",561.103123,"j","j","right","(862, 362)",120,1,554.392420223365,-79.6285572240034,"1507.97",69,2,0,NA
"pilot_14",51,"left","SHINEd_Shark_GreatWhite.jpg","congruent","n",572.588177,"f","f","left","(148, 362)",287,1,578.632568862643,-55.3884085847257,"8759.36",18,1,0,NA
"pilot_14",68,"right","SHINEd_Sheep.jpg","incongruent","n",509.341695,"f","f","left","(862, 362)",300,1,513.767903214376,-120.253074232992,"958.84",289,3,0,1
"pilot_14",133,"left","SHINEd_Ship_Model.jpg","incongruent","m",836.110039,"j","j","right","(148, 362)",83,1,834.349074441592,200.328096994224,"1357.27",26,4,1,1
"pilot_14",29,"left","SHINEd_Shoes_Pumps.jpg","incongruent","m",637.969856,"j","j","right","(148, 362)",151,1,646.108367878047,12.0873904306782,"4630.23",8,3,1,1
"pilot_14",147,"right","SHINEd_SnowGlobe.jpg","congruent","m",640.495512,"j","j","right","(862, 362)",84,1,637.401925613608,3.38094816623954,"2746.4",281,2,0,NA
"pilot_14",10,"left","SHINEd_Snowboard.jpg","incongruent","m",574.612767,"j","j","right","(148, 362)",23,1,584.559837073168,-49.4611403742004,"1525.96",354,4,1,1
"pilot_14",55,"right","SHINEd_SpiderWeb.jpg","incongruent","n",658.116837,"f","f","left","(862, 362)",348,1,663.780479768933,29.7595023215646,"1955.95",23,4,1,1
"pilot_14",178,"right","SHINEd_SpinningWheel.jpg","congruent","m",567.03401,"j","j","right","(862, 362)",124,1,560.989618137357,-73.0313593100113,"1726.55",135,2,0,NA
"pilot_14",4,"left","SHINEd_SpongeScrubbing.jpg","incongruent","m",888.773529,"j","j","right","(148, 362)",139,1,899.291722713733,265.270745266364,"1534.84",97,3,1,1
"pilot_14",168,"right","SHINEd_Squash_Butternut.jpg","incongruent","n",538.620444,"f","f","left","(862, 362)",444,1,533.527924871632,-100.493052575737,"982.72",377,3,0,1
"pilot_14",85,"right","SHINEd_Squid_Pink.jpg","incongruent","n",612.612382,"f","f","left","(862, 362)",336,1,615.42040656611,-18.6005708812588,"1691.93",91,3,0,1
"pilot_14",195,"left","SHINEd_Staircase_Curving.jpg","incongruent","m",812.839471,"j","j","right","(148, 362)",115,1,805.176895489091,171.155918041722,"1818.11",63,3,0,1
"pilot_14",98,"left","SHINEd_Stapler_Regular.jpg","incongruent","m",635.611975,"j","j","right","(148, 362)",43,1,637.182565011553,3.16158756418445,"2128.59",143,3,0,1
"pilot_14",75,"left","SHINEd_Stingray.jpg","congruent","n",799.006407,"f","f","left","(148, 362)",315,1,802.766304300384,168.745326853016,"2966.82",95,2,1,NA
"pilot_14",219,"left","SHINEd_Stroller.jpg","incongruent","m",496.249789,"j","j","right","(148, 362)",55,1,486.302718926832,-147.718258520536,"1828.05",83,3,0,1
"pilot_14",118,"left","SHINEd_Swan.jpg","congruent","n",664.784576,"f","f","left","(148, 362)",443,1,664.451420543004,30.4304430956355,"1134.5",147,3,0,1
"pilot_14",142,"right","SHINEd_Tape_Scotch.jpg","congruent","m",780.836211,"j","j","right","(862, 362)",228,1,778.218560980745,144.197583533377,"1077.99",357,3,1,1
"pilot_14",220,"right","SHINEd_Tie.jpg","congruent","m",860.704366,"j","j","right","(862, 362)",192,1,850.662108653405,216.641131206036,"1637.94",448,4,1,1
"pilot_14",67,"right","SHINEd_TigerWhite.jpg","incongruent","n",609.967425,"f","f","left","(862, 362)",440,1,614.488820487804,-19.5321569595647,"1286.21",157,3,0,1
"pilot_14",63,"left","SHINEd_Toolbox_RedOpen.jpg","incongruent","m",675.580363,"j","j","right","(148, 362)",39,1,680.482507581513,46.461530134145,"2164.65",39,2,0,NA
"pilot_14",96,"left","SHINEd_Tractor_Orange.jpg","incongruent","m",756.319304,"j","j","right","(148, 362)",175,1,758.080268558408,124.059291111039,"1961.21",50,2,1,NA
"pilot_14",22,"left","SHINEd_WateringCan_PlasticDarkGreen.jpg","incongruent","m",586.189922,"j","j","right","(148, 362)",215,1,594.994744792039,-39.0262326553297,"1255.07",363,4,1,1
"pilot_14",76,"right","SHINEd_alarm.jpg","congruent","m",556.391248,"j","j","right","(862, 362)",96,1,560.055958026957,-73.9650194204118,"1270.78",406,3,1,1
"pilot_14",162,"left","SHINEd_alfalfa.jpg","congruent","n",549.315222,"f","f","left","(148, 362)",283,1,544.793826512196,-89.2271509351721,"1198.89",425,3,1,1
"pilot_14",120,"left","SHINEd_alligator.jpg","congruent","n",575.556844,"f","f","left","(148, 362)",355,1,575.033313996149,-58.9876634512194,"1412.69",153,2,0,NA
"pilot_14",196,"left","SHINEd_almond.jpg","congruent","n",624.279084,"f","f","left","(148, 362)",311,1,616.521321215663,-17.4996562317052,"1711.88",30,3,0,1
"pilot_14",113,"left","SHINEd_aloe.jpg","congruent","n",574.080848,"f","f","left","(148, 362)",299,1,574.223628910141,-59.7973485372273,"1037.04",329,3,1,1
"pilot_14",18,"right","SHINEd_alpaca_fo.jpg","incongruent","n",555.51527,"f","f","left","(862, 362)",400,1,564.700841885748,-69.3201355616199,"1518.14",372,3,1,1
"pilot_14",48,"right","SHINEd_ant.jpg","incongruent","n",610.654237,"f","f","left","(862, 362)",328,1,616.984190682925,-17.0367867644433,"1454.32",344,2,0,NA
"pilot_14",179,"right","SHINEd_anteater.jpg","incongruent","n",627.385907,"f","f","left","(862, 362)",368,1,621.24632786393,-12.7746495834387,"1158.6",441,3,0,1
"pilot_14",124,"left","SHINEd_ashtray.jpg","incongruent","m",837.306335,"j","j","right","(148, 362)",227,1,836.402055902439,202.381078455071,"1233.35",224,4,1,1
"pilot_14",180,"left","SHINEd_bat.jpg","congruent","n",573.841545,"f","f","left","(148, 362)",403,1,567.606778590502,-66.4141988568661,"1598.81",251,2,0,NA
"pilot_14",11,"left","SHINEd_bear.jpg","congruent","n",521.196158,"f","f","left","(148, 362)",271,1,531.048040799741,-102.972936647628,"1399.8",56,4,1,1
"pilot_14",228,"right","SHINEd_bee.jpg","incongruent","n",584.937019,"f","f","left","(862, 362)",380,1,574.133263465985,-59.8877139813835,"3150.82",12,3,0,1
"pilot_14",60,"right","SHINEd_beetle.jpg","incongruent","n",639.510781,"f","f","left","(862, 362)",356,1,644.698487401796,10.6775099544273,"1298.85",302,2,1,NA
"pilot_14",104,"left","SHINEd_beluga.jpg","congruent","n",842.236395,"f","f","left","(148, 362)",431,1,843.235861370988,209.21488392362,"2588.78",132,2,0,NA
"pilot_14",192,"left","SHINEd_birdie.jpg","incongruent","m",561.203431,"j","j","right","(148, 362)",131,1,553.826417309373,-80.1945601379954,"1203.78",131,3,0,1
"pilot_14",6,"right","SHINEd_blackberry.jpg","incongruent","n",0,".","f","left","(862, 362)",280,0,10.3278191668778,-623.693158280491,"1238.34",296,4,1,1
"pilot_14",40,"right","SHINEd_blueberries.jpg","incongruent","n",749.530312,"f","f","left","(862, 362)",232,1,756.621763870345,122.600786422976,"2103.22",77,3,0,1
"pilot_14",152,"right","SHINEd_bullrush.jpg","incongruent","n",937.552342,"f","f","left","(862, 362)",324,1,933.982819246471,299.961841799102,"1893.74",32,2,1,NA
"pilot_14",225,"right","SHINEd_chick hatch.jpg","incongruent","n",629.059032,"f","f","left","(862, 362)",384,1,618.540838286267,-15.4801391611012,"1124.63",265,4,1,1
"pilot_14",59,"left","SHINEd_clementine.jpg","congruent","n",617.930994,"f","f","left","(148, 362)",359,1,623.213887675223,-10.8070897721451,"1779.94",81,4,1,1
"pilot_14",5,"left","SHINEd_dates_fresh.jpg","congruent","n",693.281849,"f","f","left","(148, 362)",319,1,703.704855440305,69.6838779929368,"1327.42",410,3,1,1
"pilot_14",72,"right","SHINEd_dove.jpg","incongruent","n",508.692393,"f","f","left","(862, 362)",308,1,512.737852120666,-121.283125326702,"2132.26",313,2,1,NA
"pilot_14",23,"left","SHINEd_edamame.jpg","congruent","n",695.022709,"f","f","left","(148, 362)",303,1,703.732344518611,69.7113670712428,"1500.08",112,2,1,NA
"pilot_14",58,"right","SHINEd_eggs.jpg","incongruent","n",630.457216,"f","f","left","(862, 362)",296,1,635.835296948651,1.81431950128226,"2486.35",291,2,1,NA
"pilot_14",200,"left","SHINEd_elbow.jpg","congruent","n",887.025604,"f","f","left","(148, 362)",263,1,878.887092121953,244.866114674585,"1473.23",36,4,1,1
"pilot_14",159,"left","SHINEd_feather.jpg","congruent","n",738.168146,"f","f","left","(148, 362)",415,1,733.932312332479,99.9113348851102,"1958.41",388,3,0,1
"pilot_14",126,"right","SHINEd_fig.jpg","incongruent","n",709.037876,"f","f","left","(862, 362)",412,1,707.943222355584,73.9222449082159,"1632.2",68,3,1,1
"pilot_14",161,"left","SHINEd_firetruck.jpg","incongruent","m",538.159719,"j","j","right","(148, 362)",179,1,533.733510785624,-100.287466661745,"972.7",348,3,0,1
"pilot_14",148,"right","SHINEd_gazelle.jpg","incongruent","n",525.190831,"f","f","left","(862, 362)",268,1,522.00205734018,-112.018920107188,"2425.56",14,2,0,NA
"pilot_14",176,"left","SHINEd_goldfish.jpg","congruent","n",686.398483,"f","f","left","(148, 362)",275,1,680.544465684212,46.5234882368437,"1258.09",229,3,0,1
"pilot_14",189,"right","SHINEd_groundhog.jpg","incongruent","n",590.372206,"f","f","left","(862, 362)",404,1,583.280754129655,-50.7402233177131,"900.73",394,3,0,1
"pilot_14",115,"right","SHINEd_housefly.jpg","incongruent","n",638.013529,"f","f","left","(862, 362)",420,1,637.965935363286,3.94495791591779,"3660.65",106,2,0,NA
"pilot_14",183,"left","SHINEd_lime.jpg","congruent","n",601.563629,"f","f","left","(148, 362)",439,1,595.04330077022,-38.9776766771485,"3908.86",250,2,1,NA
"pilot_14",90,"right","SHINEd_lorises.jpg","incongruent","n",470.694019,"f","f","left","(862, 362)",428,1,473.026107198972,-160.994870248396,"1442.1",317,3,1,1
"pilot_14",108,"right","SHINEd_maggotts.jpg","incongruent","n",822.7379,"f","f","left","(862, 362)",392,1,823.356617277278,189.33563982991,"1687.06",118,3,1,1
"pilot_14",125,"left","SHINEd_mapleleaf.jpg","congruent","n",648.019369,"f","f","left","(148, 362)",335,1,647.019902629012,12.9989251816434,"1206.97",453,3,0,1
"pilot_14",193,"right","SHINEd_mint.jpg","incongruent","n",734.077553,"f","f","left","(862, 362)",360,1,726.605352035945,92.584374588577,"1001.62",346,3,1,1
"pilot_14",150,"left","SHINEd_moth.jpg","congruent","n",538.378121,"f","f","left","(148, 362)",427,1,534.998972793326,-99.0220046540428,"2006.96",261,3,0,1
"pilot_14",7,"left","SHINEd_organutan.jpg","congruent","n",731.377577,"f","f","left","(148, 362)",343,1,741.61020889345,107.589231446082,"1311",54,4,1,1
"pilot_14",71,"right","SHINEd_ornament.jpg","congruent","m",535.555578,"j","j","right","(862, 362)",224,1,539.696224394094,-94.3247530532746,"990.89",433,3,1,1
"pilot_14",227,"left","SHINEd_paddle ball.jpg","incongruent","m",605.814705,"j","j","right","(148, 362)",27,1,595.106136739412,-38.9148407079561,"3376.62",70,2,0,NA
"pilot_14",110,"right","SHINEd_papaya.jpg","incongruent","n",527.048337,"f","f","left","(862, 362)",292,1,527.476679730423,-106.544297716945,"1544.75",179,4,1,1
"pilot_14",190,"left","SHINEd_penguin.jpg","congruent","n",554.641007,"f","f","left","(148, 362)",307,1,547.454367856228,-86.5666095911406,"1075.63",338,3,0,1
"pilot_14",198,"left","SHINEd_pine-cone-.jpg","congruent","n",767.988948,"f","f","left","(148, 362)",399,1,760.040810668808,126.01983322144,"1113.35",206,3,0,1
"pilot_14",41,"left","SHINEd_pistachios-.jpg","congruent","n",616.642809,"f","f","left","(148, 362)",411,1,623.639073596917,-10.3819038504511,"1005.15",277,4,1,1
"pilot_14",171,"left","SHINEd_puffer-fish.jpg","congruent","n",555.728284,"f","f","left","(148, 362)",339,1,550.350203051349,-83.6707743960191,"1055.81",191,4,1,1
"pilot_14",34,"right","SHINEd_raspberry.jpg","incongruent","n",584.203646,"f","f","left","(862, 362)",456,1,591.866221510909,-42.154755936459,"2061.9",99,3,0,1
"pilot_14",136,"right","SHINEd_rhino.jpg","incongruent","n",742.023295,"f","f","left","(862, 362)",352,1,739.97676862131,105.955791173941,"1488.76",247,2,0,NA
"pilot_14",43,"left","SHINEd_sanddollar.jpg","congruent","n",865.619633,"j","f","left","(148, 362)",295,0,872.425523050062,238.404545602694,"1759.4",194,4,1,1
"pilot_14",201,"right","SHINEd_seatAirplane.jpg","congruent","m",745.887207,"j","j","right","(862, 362)",172,1,737.653507848526,103.632530401158,"1803.48",283,3,0,1
"pilot_14",123,"right","SHINEd_sloth.jpg","incongruent","n",649.938861,"f","f","left","(862, 362)",304,1,649.129769175867,15.1087917284983,"1444.58",158,4,1,1
"pilot_14",181,"left","SHINEd_sunflowers.jpg","congruent","n",497.239596,"f","f","left","(148, 362)",395,1,490.909642317075,-143.111335130294,"1005.61",311,4,1,1
"pilot_14",217,"left","SHINEd_tamarinds.jpg","congruent","n",585.721253,"f","f","left","(148, 362)",451,1,575.964557473687,-58.0564199736816,"1480.54",121,4,1,1
"pilot_14",36,"right","SHINEd_tapir copy.jpg","incongruent","n",766.898339,"f","f","left","(862, 362)",408,1,774.370539964054,140.349562516686,"1519.57",230,3,1,1
"pilot_14",203,"left","SHINEd_tentacle.jpg","congruent","n",682.107863,"f","f","left","(148, 362)",247,1,673.683789301671,39.6628118543026,"2679.75",156,4,1,1
"pilot_14",102,"left","SHINEd_tooth.jpg","congruent","n",922.379637,"f","f","left","(148, 362)",363,1,923.569477917843,289.548500470475,"1422.9",125,4,1,1
"pilot_14",164,"left","SHINEd_tree.jpg","congruent","n",524.245364,"f","f","left","(148, 362)",375,1,519.533593965341,-114.487383482027,"1405.78",303,3,1,1
"pilot_14",9,"left","SHINEd_turkey.jpg","congruent","n",713.522337,"f","f","left","(148, 362)",391,1,723.564594346595,89.5436168992271,"831.2",419,2,0,NA
"pilot_14",119,"right","SHINEd_vulture.jpg","incongruent","n",795.373951,"f","f","left","(862, 362)",436,1,794.945608269576,160.924630822208,"1041.03",321,3,0,1
"pilot_14",31,"left","SHINEd_whistle.jpg","incongruent","m",509.071953,"j","j","right","(148, 362)",79,1,517.020090331192,-117.000887116177,"1296.97",185,4,1,1
"pilot_14",151,"left","SHINEd_white sesame.jpg","congruent","n",591.000939,"j","f","left","(148, 362)",371,0,587.526603519898,-46.4943739274702,"1766.11",64,3,1,1
"pilot_14",156,"left","SHINEd_zebra.jpg","congruent","n",568.317902,"f","f","left","(148, 362)",447,1,564.367630152761,-69.6533472946074,"942.31",382,3,0,1
