"participant","trial_index","screenposition","stimulus","trialtype","classifyenc","rt","response","responsecorrect","responsecorrect_side","screenlocation","stimnum","acc","rtResidual","rtResidualC","rt_rec","trialno_rec","ratingConfidence","acc_rec","memoryHits.hc"
"pilot3_2",126,"right","SHINEd_Ball_Basketball.jpg","incongruent","m",655.972424,"f","f","left","(862, 362)",130,1,658.449479671311,63.4568740792061,"1091.26",362,4,1,1
"pilot3_2",24,"right","SHINEd_Ball_Bowling.jpg","incongruent","m",857.811444,"f","f","left","(862, 362)",134,1,838.318092847507,243.325487255401,"743.64",125,4,1,1
"pilot3_2",196,"left","SHINEd_BasketballHoop.jpg","congruent","m",617.105819,"f","f","left","(148, 362)",129,1,634.660604844511,39.6679992524054,"4075.88",30,3,1,1
"pilot3_2",186,"right","SHINEd_Bathtub.jpg","incongruent","m",723.790618,"f","f","left","(862, 362)",58,1,739.191442391196,144.198836799091,"1882.92",116,4,1,1
"pilot3_2",76,"right","SHINEd_BearPolar.jpg","congruent","n",562.410271,"j","j","right","(862, 362)",386,1,554.11751940474,-40.8750861873649,"1419.67",438,2,1,NA
"pilot3_2",174,"right","SHINEd_Beater_Electric.jpg","incongruent","m",485.372742,"f","f","left","(862, 362)",42,1,498.188812647219,-96.8037929448858,"1728.86",187,4,1,1
"pilot3_2",211,"left","SHINEd_Bells_Christmas.jpg","congruent","m",0,".","f","left","(148, 362)",225,0,20.785728024482,-574.206877567623,"1838.19",112,4,1,1
"pilot3_2",63,"right","SHINEd_Bench_Black.jpg","incongruent","m",603.823819,"f","f","left","(862, 362)",206,1,592.730917515432,-2.26168807667337,"719.54",357,4,0,1
"pilot3_2",197,"left","SHINEd_BicycleChain.jpg","congruent","m",892.310993,"f","f","left","(148, 362)",17,1,910.081174989842,315.088569397737,"1605.05",248,3,0,1
"pilot3_2",168,"right","SHINEd_Bicycle_Kids.jpg","incongruent","m",521.672929,"f","f","left","(862, 362)",26,1,533.196622775231,-61.7959828168744,"3757.39",291,3,0,1
"pilot3_2",41,"left","SHINEd_Binder.jpg","congruent","m",707.467067,"f","f","left","(148, 362)",65,1,691.635450318141,96.6428447260355,"1109.95",230,2,0,NA
"pilot3_2",189,"left","SHINEd_Bird_Eagle.jpg","incongruent","n",759.252062,"j","j","right","(148, 362)",257,1,775.299074827191,180.306469235086,"744.3",133,4,1,1
"pilot3_2",67,"left","SHINEd_Bird_Parrot.jpg","incongruent","n",607.081998,"j","j","right","(148, 362)",233,1,596.850681096758,1.85807550465235,"1567.28",325,4,1,1
"pilot3_2",122,"right","SHINEd_Bird_Pelican.jpg","congruent","n",643.314473,"j","j","right","(862, 362)",402,1,644.929944089986,49.9373384978804,"2883.81",142,4,1,1
"pilot3_2",191,"left","SHINEd_Bleachers.jpg","congruent","m",583.110685,"f","f","left","(148, 362)",133,1,599.588490117854,4.59588452574831,"1132.66",354,4,0,1
"pilot3_2",40,"right","SHINEd_Boardgame_Chess.jpg","incongruent","m",743.802204,"f","f","left","(862, 362)",86,1,727.755191172809,132.762585580704,"934.43",189,4,1,1
"pilot3_2",23,"left","SHINEd_Boat_Colourful.jpg","congruent","m",606.47753,"f","f","left","(148, 362)",173,1,586.768782702175,-8.2238228899301,"1120.58",350,4,1,1
"pilot3_2",153,"right","SHINEd_Boot_Rain.jpg","incongruent","m",551.706943,"f","f","left","(862, 362)",150,1,559.99969459526,-34.9929109968456,"1139.47",269,4,1,1
"pilot3_2",194,"left","SHINEd_Bottle_Beer.jpg","congruent","m",552.114897,"f","f","left","(148, 362)",213,1,569.238890553848,-25.7537150382574,"8432.73",388,2,1,NA
"pilot3_2",114,"left","SHINEd_Bottle_Blue.jpg","congruent","m",510.16227,"f","f","left","(148, 362)",217,1,510.054571927334,-84.938033664771,"1364.53",267,4,1,1
"pilot3_2",33,"right","SHINEd_Bowl_Fruits.jpg","congruent","n",630.125441,"j","j","right","(862, 362)",434,1,612.570655155489,17.5780495633841,"1169.75",399,4,1,1
"pilot3_2",144,"left","SHINEd_Bowl_Wooden.jpg","congruent","m",592.183691,"f","f","left","(148, 362)",141,1,598.537877287277,3.54527169517157,"1118.15",194,4,1,1
"pilot3_2",203,"left","SHINEd_BowlingPin.jpg","congruent","m",635.507721,"f","f","left","(148, 362)",25,1,654.570279861831,59.5776742697253,"943.85",306,3,0,1
"pilot3_2",36,"right","SHINEd_Box_Notepaper.jpg","incongruent","m",577.85159,"f","f","left","(862, 362)",70,1,560.942992591484,-34.0496130006217,"3303.86",210,4,1,1
"pilot3_2",31,"left","SHINEd_Branch.jpg","incongruent","n",749.993947,"j","j","right","(148, 362)",333,1,732.008368864827,137.015763272721,"1023.58",345,3,0,1
"pilot3_2",42,"right","SHINEd_Briefcase_Leather.jpg","incongruent","m",560.196542,"f","f","left","(862, 362)",210,1,544.580321463472,-50.4122841286331,"1322.76",300,3,0,1
"pilot3_2",53,"left","SHINEd_Broccoli.jpg","incongruent","n",519.209351,"j","j","right","(148, 362)",253,1,505.962488062118,-89.0301175299876,"640.63",94,4,1,1
"pilot3_2",202,"right","SHINEd_Bucket_Rusty.jpg","incongruent","m",727.855265,"f","f","left","(862, 362)",34,1,746.702427716499,151.709822124394,"967.26",404,4,1,1
"pilot3_2",103,"right","SHINEd_Bugle.jpg","incongruent","m",602.382456,"f","f","left","(862, 362)",14,1,599.905400328689,4.91279473658349,"1973.14",11,4,1,1
"pilot3_2",175,"left","SHINEd_BusStop.jpg","congruent","m",490.829971,"f","f","left","(148, 362)",145,1,503.861437792551,-91.1311677995544,"1331.03",273,4,1,1
"pilot3_2",116,"right","SHINEd_Butterfly.jpg","congruent","n",478.454276,"j","j","right","(862, 362)",318,1,478.777370217997,-116.215235374108,"1184.24",9,4,1,1
"pilot3_2",147,"left","SHINEd_Cabinet_Display.jpg","congruent","m",523.082565,"f","f","left","(148, 362)",205,1,530.082939723271,-64.9096658688341,"1019.45",32,4,1,1
"pilot3_2",148,"right","SHINEd_Calculator.jpg","incongruent","m",0,".","f","left","(862, 362)",94,0,7.21577086860259,-587.776834723503,"1311.2",401,4,0,1
"pilot3_2",87,"left","SHINEd_Camera_Video.jpg","congruent","m",572.619637,"f","f","left","(148, 362)",97,1,566.696243003386,-28.2963625887193,"2071.59",14,4,1,1
"pilot3_2",215,"right","SHINEd_Cane_Metal.jpg","incongruent","m",641.076302,"f","f","left","(862, 362)",190,1,662.723614605808,67.7310090137024,"1060.48",318,4,1,1
"pilot3_2",162,"left","SHINEd_Cannon.jpg","congruent","m",579.010849,"f","f","left","(148, 362)",61,1,589.242165903242,-5.75043968886283,"1275.25",22,3,0,1
"pilot3_2",20,"right","SHINEd_Cantaloupe.jpg","congruent","n",715.102874,"j","j","right","(862, 362)",338,1,694.747938266181,99.7553326740757,"1567.11",268,3,1,1
"pilot3_2",58,"right","SHINEd_Car_Vintage.jpg","incongruent","m",539.212367,"f","f","left","(862, 362)",186,1,527.042484788775,-67.9501208033305,"1001.99",424,3,1,1
"pilot3_2",150,"left","SHINEd_Carabiner_Orange.jpg","congruent","m",404.393746,"f","f","left","(148, 362)",29,1,412.040309159265,-182.95229643284,"2775.29",3,3,1,1
"pilot3_2",124,"left","SHINEd_Carrot.jpg","incongruent","n",674.807324,"j","j","right","(148, 362)",281,1,676.853587380648,81.8609817885432,"2164.48",334,4,1,1
"pilot3_2",112,"right","SHINEd_CasketOpen.jpg","incongruent","m",628.592876,"f","f","left","(862, 362)",218,1,628.054385636672,33.0617800445663,"902.52",209,4,1,1
"pilot3_2",104,"right","SHINEd_Cat.jpg","congruent","n",540.617125,"f","j","right","(862, 362)",362,0,538.35546547402,-56.6371401180852,"2049.32",420,2,1,NA
"pilot3_2",187,"left","SHINEd_ChainRusty.jpg","congruent","m",655.19393,"f","f","left","(148, 362)",21,1,670.810150536528,75.8175449444227,"639.67",373,3,0,1
"pilot3_2",131,"left","SHINEd_Chair_High.jpg","congruent","m",548.747114,"f","f","left","(148, 362)",209,1,552.301150397969,-42.6914551941368,"1378.46",277,4,1,1
"pilot3_2",81,"right","SHINEd_ChalkboardEraser.jpg","incongruent","m",550.323826,"f","f","left","(862, 362)",62,1,543.108055131398,-51.8845504607077,"1019.15",144,3,1,1
"pilot3_2",157,"right","SHINEd_Cheesegrater_Handheld.jpg","incongruent","m",711.789785,"f","f","left","(862, 362)",162,1,720.944121176585,125.95151558448,"1064.29",197,4,1,1
"pilot3_2",27,"right","SHINEd_Cherry.jpg","congruent","n",567.455655,"j","j","right","(862, 362)",258,1,548.608492283501,-46.3841133086044,"1523.16",392,3,0,1
"pilot3_2",26,"right","SHINEd_Clarinet.jpg","incongruent","m",700.729189,"f","f","left","(862, 362)",6,1,681.666630138169,86.6740245460642,"1204.13",232,4,1,1
"pilot3_2",12,"right","SHINEd_Clip_Paper.jpg","incongruent","m",573.737431,"f","f","left","(862, 362)",66,1,551.65932610353,-43.3332794885757,"935.32",311,4,1,1
"pilot3_2",138,"left","SHINEd_Clock_Radio.jpg","congruent","m",567.200572,"f","f","left","(148, 362)",93,1,572.262381415288,-22.7302241768169,"1707.71",240,4,1,1
"pilot3_2",212,"right","SHINEd_ClothCoaster.jpg","incongruent","m",492.727329,"f","f","left","(862, 362)",142,1,513.728453169813,-81.2641524222919,"905.99",222,4,1,1
"pilot3_2",70,"left","SHINEd_Cloud.jpg","incongruent","n",914.349259,"f","j","right","(148, 362)",385,0,904.764130532752,309.771524940647,"1363.84",16,4,1,1
"pilot3_2",140,"left","SHINEd_Colander.jpg","congruent","m",534.239734,"f","f","left","(148, 362)",41,1,539.732335705951,-55.2602698861541,"4686.63",4,2,0,NA
"pilot3_2",110,"left","SHINEd_Collards.jpg","incongruent","n",542.128352,"j","j","right","(148, 362)",445,1,541.159069346009,-53.8335362460967,"967.37",65,4,1,1
"pilot3_2",65,"left","SHINEd_Corn.jpg","incongruent","n",579.980076,"j","j","right","(148, 362)",337,1,569.317966806095,-25.6746387860104,"1200.88",249,4,1,1
"pilot3_2",64,"right","SHINEd_Cranberry.jpg","congruent","n",552.465708,"j","j","right","(862, 362)",398,1,541.588202660763,-53.404402931342,"1430.65",282,4,1,1
"pilot3_2",25,"left","SHINEd_Crown.jpg","congruent","m",718.043245,"f","f","left","(148, 362)",193,1,698.765289992838,103.772684400733,"1350.15",64,4,1,1
"pilot3_2",39,"right","SHINEd_Currants.jpg","congruent","n",853.296916,"j","j","right","(862, 362)",254,1,837.034507027478,242.041901435373,"608.11",147,4,1,1
"pilot3_2",127,"left","SHINEd_DeepFryer.jpg","congruent","m",613.521867,"f","f","left","(148, 362)",161,1,616.214318816643,21.2217132245375,"948.09",174,2,0,NA
"pilot3_2",17,"left","SHINEd_DentalFloss.jpg","congruent","m",641.247343,"f","f","left","(148, 362)",117,1,620.246218830187,25.2536132380814,"1103.7",148,4,1,1
"pilot3_2",22,"right","SHINEd_Deodorant.jpg","incongruent","m",609.034918,"f","f","left","(862, 362)",118,1,589.110774556844,-5.88183103526157,"1231.78",442,4,1,1
"pilot3_2",200,"left","SHINEd_Desk_School.jpg","congruent","m",559.295252,"f","f","left","(148, 362)",201,1,577.711622425836,-17.2809831662689,"979.7",330,4,0,1
"pilot3_2",178,"left","SHINEd_Dice.jpg","congruent","m",774.075057,"f","f","left","(148, 362)",89,1,787.752712228545,192.76010663644,"1543.78",6,4,1,1
"pilot3_2",118,"left","SHINEd_DogHouse.jpg","congruent","m",477.292293,"f","f","left","(148, 362)",165,1,478.04617950866,-116.946426083445,"1300.45",215,3,0,1
"pilot3_2",159,"right","SHINEd_Dog_Bulldog.jpg","congruent","n",424.167862,"j","j","right","(862, 362)",326,1,433.752990467248,-161.239615124857,"916.04",40,4,1,1
"pilot3_2",1,"left","SHINEd_Dog_ChowChow.jpg","incongruent","n",0,".","j","right","(148, 362)",369,0,-24.4474624951151,-619.44006808722,"1539.98",278,4,0,1
"pilot3_2",80,"right","SHINEd_Dog_CockerSpaniel.jpg","congruent","n",520.478731,"j","j","right","(862, 362)",306,1,513.047563986066,-81.9450416060392,"680.82",97,4,1,1
"pilot3_2",221,"left","SHINEd_DoorKnob.jpg","congruent","m",461.040789,"f","f","left","(148, 362)",53,1,483.980478477796,-111.012127114309,"947.53",356,4,0,1
"pilot3_2",77,"right","SHINEd_Door_Green.jpg","incongruent","m",562.806851,"f","f","left","(862, 362)",106,1,554.729495550072,-40.2631100420334,"4769.22",348,4,1,1
"pilot3_2",176,"right","SHINEd_Dragonfly.jpg","congruent","n",438.107855,"j","j","right","(862, 362)",346,1,451.354717937882,-143.637887654223,"866.34",145,4,1,1
"pilot3_2",206,"right","SHINEd_Drill.jpg","incongruent","m",600.623678,"f","f","left","(862, 362)",30,1,620.332425297825,25.3398197057196,"942.72",243,2,0,NA
"pilot3_2",156,"left","SHINEd_Drum_Bongos.jpg","congruent","m",556.553245,"f","f","left","(148, 362)",9,1,565.492185031254,-29.5004205608514,"1115.91",150,2,0,NA
"pilot3_2",166,"right","SHINEd_DustPan.jpg","incongruent","m",499.72087,"f","f","left","(862, 362)",54,1,510.813771484568,-84.1788341075372,"2175.28",335,4,1,1
"pilot3_2",121,"right","SHINEd_ElectricOutlet.jpg","incongruent","m",759.736921,"f","f","left","(862, 362)",102,1,761.136995944654,166.144390352549,"1116.77",228,4,1,1
"pilot3_2",219,"left","SHINEd_Elephant.jpg","incongruent","n",662.605305,"j","j","right","(148, 362)",349,1,685.114202187133,90.1215965950281,"873.99",131,4,1,1
"pilot3_2",46,"left","SHINEd_Escalator.jpg","congruent","m",550.220243,"f","f","left","(148, 362)",177,1,535.465607044798,-59.5269985473075,"1415.71",303,4,1,1
"pilot3_2",71,"right","SHINEd_Feet.jpg","congruent","n",623.352059,"f","j","right","(862, 362)",310,0,613.982326678083,18.9897210859781,"3024.95",37,4,1,1
"pilot3_2",223,"left","SHINEd_FileDivider.jpg","congruent","m",620.761617,"f","f","left","(148, 362)",69,1,644.132098768459,49.1394931763537,"2309.38",316,3,0,1
"pilot3_2",172,"left","SHINEd_Fish_Rockbass.jpg","incongruent","n",551.85792,"j","j","right","(148, 362)",341,1,564.243198356557,-30.7494072355486,"923.71",391,4,1,1
"pilot3_2",84,"right","SHINEd_Flamingo_Real.jpg","congruent","n",418.069087,"j","j","right","(862, 362)",406,1,411.499504567392,-183.493101024713,"1399.5",198,3,0,1
"pilot3_2",161,"right","SHINEd_Flashlight.jpg","incongruent","m",528.810807,"f","f","left","(862, 362)",98,1,538.826727757911,-56.1658778341943,"1442.72",214,4,1,1
"pilot3_2",3,"left","SHINEd_FlipFlop_PairBlue.jpg","congruent","m",676.084164,"f","f","left","(148, 362)",153,1,652.067493795547,57.0748882034415,"987.17",290,4,1,1
"pilot3_2",120,"right","SHINEd_Fruit_Orange.jpg","congruent","n",851.643852,"j","j","right","(862, 362)",302,1,852.828530799323,257.835925207218,"2163.72",254,3,1,1
"pilot3_2",128,"right","SHINEd_Fryingpan.jpg","incongruent","m",583.962177,"f","f","left","(862, 362)",158,1,586.870024961974,-8.12258063013109,"4498.69",256,3,0,1
"pilot3_2",210,"left","SHINEd_Gametable_AirHockey.jpg","congruent","m",550.651673,"f","f","left","(148, 362)",85,1,571.222004879151,-23.7706007129548,"3379.33",377,4,1,1
"pilot3_2",181,"right","SHINEd_Gecko.jpg","congruent","n",498.572243,"j","j","right","(862, 362)",370,1,512.896086664539,-82.0965189275659,"1070.35",338,3,1,1
"pilot3_2",4,"left","SHINEd_Giraffe.jpg","incongruent","n",760.041255,"f","j","right","(148, 362)",381,0,736.239980940878,141.247375348773,"1607.71",236,3,0,1
"pilot3_2",34,"right","SHINEd_Glove_Rubber.jpg","incongruent","m",641.997687,"j","f","left","(862, 362)",138,0,624.658297300821,29.6656917087155,"978.15",272,2,0,NA
"pilot3_2",99,"left","SHINEd_Gloves_WhiteKnit.jpg","congruent","m",466.558404,"f","f","left","(148, 362)",197,1,463.219763747363,-131.772841844742,"1242.85",409,4,0,1
"pilot3_2",13,"right","SHINEd_Goat.jpg","congruent","n",568.875981,"j","j","right","(862, 362)",322,1,547.013272248861,-47.9793333432443,"4383.95",433,2,1,NA
"pilot3_2",133,"left","SHINEd_Gorilla.jpg","incongruent","n",542.550555,"j","j","right","(148, 362)",285,1,546.535383688631,-48.457221903474,"720.76",451,4,1,1
"pilot3_2",89,"right","SHINEd_Grape.jpg","congruent","n",573.520359,"j","j","right","(862, 362)",274,1,568.027757294049,-26.9648482980564,"866.43",41,4,1,1
"pilot3_2",54,"left","SHINEd_Gum_Pack.jpg","congruent","m",642.596831,"f","f","left","(148, 362)",77,1,629.565364207449,34.5727586153439,"1506.49",191,4,1,1
"pilot3_2",90,"right","SHINEd_HairClip.jpg","incongruent","m",489.928536,"f","f","left","(862, 362)",194,1,484.65133043938,-110.341275152725,"849.33",169,4,1,1
"pilot3_2",180,"left","SHINEd_HairDryer.jpg","congruent","m",431.829918,"f","f","left","(148, 362)",45,1,445.938365519208,-149.054240072897,"4389.31",2,3,0,1
"pilot3_2",222,"left","SHINEd_Hat_Baseball.jpg","congruent","m",584.184804,"f","f","left","(148, 362)",189,1,607.339889623128,12.3472840310223,"770.92",212,4,0,1
"pilot3_2",68,"right","SHINEd_Heater_Outdoor.jpg","incongruent","m",555.866973,"f","f","left","(862, 362)",170,1,545.851052242089,-49.1415533500162,"3429.22",402,4,1,1
"pilot3_2",50,"right","SHINEd_Helmet_Bicycle.jpg","incongruent","m",629.414873,"f","f","left","(862, 362)",18,1,615.521821626123,20.5292160340182,"752.59",170,4,1,1
"pilot3_2",2,"left","SHINEd_HotWaterBottle.jpg","congruent","m",720.302215,"f","f","left","(148, 362)",113,1,696.070148650216,101.07754305811,"990.75",336,4,1,1
"pilot3_2",115,"right","SHINEd_Hourglass.jpg","incongruent","m",747.229862,"f","f","left","(862, 362)",110,1,747.337560072666,152.34495448056,"874.52",301,4,1,1
"pilot3_2",143,"right","SHINEd_Jacket_Suit.jpg","incongruent","m",547.62154,"f","f","left","(862, 362)",2,1,553.760330141945,-41.2322754501598,"831.32",233,4,1,1
"pilot3_2",151,"left","SHINEd_Jetski.jpg","congruent","m",632.955252,"f","f","left","(148, 362)",181,1,640.817211304597,45.8246057124915,"1206.49",127,4,1,1
"pilot3_2",198,"left","SHINEd_Kettle.jpg","congruent","m",672.926243,"f","f","left","(148, 362)",157,1,690.911821135174,95.9192155430682,"831.62",270,4,1,1
"pilot3_2",44,"right","SHINEd_Kite_Rainbow.jpg","incongruent","m",838.568819,"f","f","left","(862, 362)",78,1,823.383390754135,228.39078516203,"2352.9",52,4,1,1
"pilot3_2",91,"left","SHINEd_Knee.jpg","incongruent","n",637.38218,"f","j","right","(148, 362)",309,0,632.320370584712,37.3277649926064,"1252.88",265,4,1,1
"pilot3_2",11,"left","SHINEd_Knife_Camping.jpg","congruent","m",681.480841,"f","f","left","(148, 362)",37,1,659.187339958198,64.1947343660929,"1598.61",289,4,1,1
"pilot3_2",83,"right","SHINEd_LawnMower.jpg","incongruent","m",518.72947,"f","f","left","(862, 362)",46,1,511.94449142206,-83.048114170045,"2396.24",104,4,1,1
"pilot3_2",6,"left","SHINEd_Leaf_Clover.jpg","incongruent","n",808.883765,"j","j","right","(148, 362)",449,1,785.513283231541,190.520677639436,"1883",257,4,1,1
"pilot3_2",184,"left","SHINEd_Leek.jpg","incongruent","n",717.704263,"j","j","right","(148, 362)",357,1,732.674295100534,137.681689508428,"695.02",137,4,1,1
"pilot3_2",106,"left","SHINEd_Leg.jpg","incongruent","n",844.019055,"j","j","right","(148, 362)",405,1,842.188187764683,247.195582172578,"1200.82",180,4,1,1
"pilot3_2",79,"right","SHINEd_LightHouse.jpg","incongruent","m",523.07337,"f","f","left","(862, 362)",146,1,515.426806840735,-79.5657987513707,"1149.73",252,2,0,NA
"pilot3_2",188,"left","SHINEd_Lilypad.jpg","incongruent","n",739.597936,"j","j","right","(148, 362)",413,1,755.429552681859,160.436947089754,"1129.93",246,4,1,1
"pilot3_2",185,"right","SHINEd_Lips_Real.jpg","congruent","n",722.154698,"j","j","right","(862, 362)",390,1,737.340126245865,142.34752065376,"1085.94",83,4,1,1
"pilot3_2",32,"right","SHINEd_Lipstick.jpg","incongruent","m",700.32358,"f","f","left","(862, 362)",198,1,682.553398010158,87.5607924180527,"1384.22",221,4,1,1
"pilot3_2",123,"left","SHINEd_Lychee.jpg","incongruent","n",710.762815,"f","j","right","(148, 362)",321,0,712.593682235317,117.601076643212,"1580.74",261,2,0,NA
"pilot3_2",214,"right","SHINEd_Lynx.jpg","congruent","n",395.719122,"j","j","right","(862, 362)",438,1,417.151038460476,-177.841567131629,"1661.06",119,4,1,1
"pilot3_2",73,"left","SHINEd_Magnifying_Glass.jpg","congruent","m",479.679947,"f","f","left","(148, 362)",105,1,470.741006968746,-124.251598623359,"885.66",285,4,0,1
"pilot3_2",204,"left","SHINEd_Makeup_Compact.jpg","congruent","m",759.274002,"f","f","left","(148, 362)",121,1,778.551957007162,183.559351415057,"811.73",85,4,1,1
"pilot3_2",145,"left","SHINEd_Mango.jpg","incongruent","n",547.311693,"j","j","right","(148, 362)",277,1,553.881275432608,-41.111330159497,"3310.33",182,3,0,1
"pilot3_2",192,"right","SHINEd_Mask_HockeyGoalie.jpg","incongruent","m",658.035732,"f","f","left","(862, 362)",126,1,674.728933263185,79.7363276710798,"1949.1",326,4,1,1
"pilot3_2",217,"left","SHINEd_Mattress.jpg","congruent","m",583.668412,"f","f","left","(148, 362)",49,1,605.746516896471,10.7539113043652,"856.55",114,4,1,1
"pilot3_2",15,"left","SHINEd_Megaphone.jpg","congruent","m",585.45638,"f","f","left","(148, 362)",101,1,564.024463539524,-30.9681420525815,"1483.12",380,4,1,1
"pilot3_2",8,"right","SHINEd_Mirror_Makeup.jpg","incongruent","m",541.828456,"f","f","left","(862, 362)",122,1,518.888766522204,-76.1038390699014,"1136.69",245,3,1,1
"pilot3_2",49,"left","SHINEd_Mitt_Oven.jpg","congruent","m",674.243865,"f","f","left","(148, 362)",137,1,660.135417480792,65.1428118886868,"13339.55",412,3,1,1
"pilot3_2",95,"right","SHINEd_MobilityScooter.jpg","incongruent","m",540.564314,"f","f","left","(862, 362)",182,1,536.364089166037,-58.6285164260679,"902.32",286,4,0,1
"pilot3_2",170,"left","SHINEd_MusicSheet.jpg","congruent","m",536.623779,"f","f","left","(148, 362)",13,1,548.578265065894,-46.4143405262115,"922.62",304,4,1,1
"pilot3_2",225,"right","SHINEd_Nail.jpg","incongruent","m",611.086765,"f","f","left","(862, 362)",38,1,634.888039059122,39.8954334670166,"1080.58",258,4,1,1
"pilot3_2",125,"right","SHINEd_Nuts_Pecan.jpg","congruent","n",678.013221,"j","j","right","(862, 362)",246,1,680.27488052598,85.2822749338747,"1003.33",296,4,1,1
"pilot3_2",59,"right","SHINEd_Nuts_Walnut.jpg","congruent","n",550.298158,"j","j","right","(862, 362)",446,1,538.343671934106,-56.6489336579991,"940.57",132,4,1,1
"pilot3_2",177,"left","SHINEd_Oyster.jpg","incongruent","n",402.30101,"f","j","right","(148, 362)",433,0,415.763269083214,-179.229336508892,"710.98",96,4,1,1
"pilot3_2",52,"left","SHINEd_Pacifier.jpg","congruent","m",539.469874,"f","f","left","(148, 362)",81,1,526.007614916786,-68.9849906753189,"966.35",153,4,1,1
"pilot3_2",57,"left","SHINEd_Pants_Firefighter.jpg","congruent","m",535.52968,"f","f","left","(148, 362)",1,1,523.144401643443,-71.8482039486619,"1042.05",200,4,1,1
"pilot3_2",227,"left","SHINEd_Paw.jpg","incongruent","n",571.045518,"j","j","right","(148, 362)",301,1,595.277584349785,0.284978757679433,"722.51",113,4,1,1
"pilot3_2",216,"right","SHINEd_PencilSharpener.jpg","incongruent","m",540.203208,"f","f","left","(862, 362)",74,1,562.065916751139,-32.9266888409662,"1332.5",39,4,1,1
"pilot3_2",213,"right","SHINEd_PictureFrame.jpg","incongruent","m",505.569742,"f","f","left","(862, 362)",222,1,526.786262315145,-68.2063432769604,"1022.42",376,4,1,1
"pilot3_2",56,"left","SHINEd_Pineapple.jpg","incongruent","n",563.849426,"j","j","right","(148, 362)",353,1,551.248751498112,-43.7438540939933,"1714.81",27,1,0,NA
"pilot3_2",167,"right","SHINEd_Pumpkin.jpg","congruent","n",551.567606,"j","j","right","(862, 362)",294,1,562.8759036299,-32.1167019622058,"1676.07",219,3,0,1
"pilot3_2",16,"left","SHINEd_Quartz.jpg","incongruent","n",539.300622,"j","j","right","(148, 362)",401,1,518.084101684855,-76.9085039072501,"1149.48",255,4,1,1
"pilot3_2",107,"right","SHINEd_Radish.jpg","congruent","n",889.631712,"f","j","right","(862, 362)",242,0,888.016240910014,293.023635317909,"1196.06",367,3,0,1
"pilot3_2",97,"right","SHINEd_RamAnimal.jpg","congruent","n",564.690352,"j","j","right","(862, 362)",454,1,560.9209194567,-34.0716861354051,"1787.77",15,2,0,NA
"pilot3_2",43,"left","SHINEd_RecordPlayer.jpg","congruent","m",532.170883,"f","f","left","(148, 362)",149,1,516.770058608804,-78.2225469833017,"1851.3",422,4,1,1
"pilot3_2",117,"right","SHINEd_RollerBlade.jpg","incongruent","m",513.824296,"f","f","left","(862, 362)",178,1,514.362786363329,-80.6298192287767,"917.81",415,4,1,1
"pilot3_2",86,"left","SHINEd_Ruler_Wooden.jpg","congruent","m",553.509516,"f","f","left","(148, 362)",73,1,547.370725858055,-47.6218797340507,"921.78",164,4,1,1
"pilot3_2",75,"left","SHINEd_Saw.jpg","congruent","m",519.693268,"f","f","left","(148, 362)",33,1,511.185120259409,-83.8074853326963,"1402.26",80,1,0,NA
"pilot3_2",61,"right","SHINEd_Scooter.jpg","incongruent","m",540.83402,"f","f","left","(862, 362)",174,1,529.310326224769,-65.6822793673362,"2631.59",411,4,1,1
"pilot3_2",137,"right","SHINEd_Seashell_BayScallop.jpg","congruent","n",589.537501,"j","j","right","(862, 362)",270,1,594.383914269957,-0.608691322148296,"3495.16",201,4,1,1
"pilot3_2",190,"left","SHINEd_ShoppingCart.jpg","congruent","m",547.43366,"f","f","left","(148, 362)",109,1,563.696068972522,-31.2965366195831,"1341.61",139,3,1,1
"pilot3_2",226,"left","SHINEd_Skates.jpg","congruent","m",551.852507,"f","f","left","(148, 362)",125,1,575.869177204453,-19.1234283876521,"794.69",307,3,0,1
"pilot3_2",132,"right","SHINEd_SkullDeer.jpg","congruent","n",738.102374,"j","j","right","(862, 362)",278,1,741.8718065433,146.879200951195,"1152.23",297,4,1,1
"pilot3_2",74,"right","SHINEd_Slide.jpg","incongruent","m",570.479956,"f","f","left","(862, 362)",82,1,561.756412114078,-33.2361934780277,"2017.63",24,3,1,1
"pilot3_2",199,"right","SHINEd_Slippers.jpg","incongruent","m",602.755339,"f","f","left","(862, 362)",154,1,620.956313280505,25.9637076883997,"864.82",224,4,1,1
"pilot3_2",158,"left","SHINEd_Snail.jpg","incongruent","n",515.585742,"j","j","right","(148, 362)",241,1,524.955474321917,-70.0371312701885,"648.44",192,4,1,1
"pilot3_2",102,"right","SHINEd_Starfish.jpg","congruent","n",644.304638,"j","j","right","(862, 362)",378,1,641.612186183357,46.619580591252,"1123.69",251,2,0,NA
"pilot3_2",208,"right","SHINEd_Swing_Child.jpg","incongruent","m",622.124027,"f","f","left","(862, 362)",166,1,642.263566588488,47.2709609963824,"817.14",163,3,0,1
"pilot3_2",35,"left","SHINEd_Switch_LightWhite.jpg","congruent","m",0,".","f","left","(148, 362)",57,0,-17.1239935538478,-612.116599145953,"798.85",130,2,0,NA
"pilot3_2",119,"right","SHINEd_Teapot.jpg","incongruent","m",608.648223,"f","f","left","(862, 362)",214,1,609.617505653991,14.6249000618862,"7192.91",231,3,0,1
"pilot3_2",45,"right","SHINEd_TissueBox.jpg","incongruent","m",579.066811,"f","f","left","(862, 362)",50,1,564.096778899466,-30.8958266926388,"1191.16",55,4,1,1
"pilot3_2",228,"left","SHINEd_Toad.jpg","incongruent","n",550.810725,"j","j","right","(148, 362)",441,1,575.258187495116,-19.7344180969891,"1754.1",5,4,1,1
"pilot3_2",66,"right","SHINEd_Tomato.jpg","congruent","n",682.640754,"j","j","right","(862, 362)",450,1,672.194040951426,77.2014353593209,"1020.01",84,4,1,1
"pilot3_2",85,"left","SHINEd_Tree_Fir.jpg","incongruent","n",646.758086,"j","j","right","(148, 362)",229,1,640.403899712723,45.4112941206179,"1163.33",312,3,0,1
"pilot3_2",182,"left","SHINEd_Turtle.jpg","incongruent","n",487.565088,"j","j","right","(148, 362)",305,1,502.104327809871,-92.8882777822344,"646.08",93,4,1,1
"pilot3_2",139,"right","SHINEd_USBKey.jpg","incongruent","m",882.951339,"f","f","left","(862, 362)",90,1,888.22854456062,293.235938968515,"1344.78",60,4,1,1
"pilot3_2",111,"left","SHINEd_Vase_Decorative copy.jpg","congruent","m",560.685206,"f","f","left","(148, 362)",221,1,559.93131949134,-35.0612861007652,"763.6",403,4,1,1
"pilot3_2",51,"left","SHINEd_Vest.jpg","congruent","m",441.678456,"f","f","left","(148, 362)",5,1,428.000800771455,-166.99180482065,"2084.45",12,4,1,1
"pilot3_2",88,"left","SHINEd_WatermelonSlice.jpg","incongruent","n",497.40422,"j","j","right","(148, 362)",325,1,491.696222148717,-103.296383443388,"1198.87",292,4,0,1
"pilot3_2",179,"right","SHINEd_Weights_Dumbells.jpg","incongruent","m",578.989134,"f","f","left","(862, 362)",22,1,592.882185373877,-2.11042021822868,"1551.43",439,4,1,1
"pilot3_2",113,"left","SHINEd_Wheel_Steering.jpg","congruent","m",584.511889,"f","f","left","(148, 362)",185,1,584.188794782003,-10.8038108101024,"918.97",149,4,1,1
"pilot3_2",163,"right","SHINEd_accordion.jpg","incongruent","m",663.907266,"f","f","left","(862, 362)",10,1,674.353979048574,79.3613734564686,"1098.64",413,3,0,1
"pilot3_2",29,"right","SHINEd_airpump.jpg","incongruent","m",533.787316,"f","f","left","(862, 362)",114,1,515.370945574164,-79.6216600179416,"3034.75",102,3,0,1
"pilot3_2",134,"right","SHINEd_antlers.jpg","congruent","n",546.156319,"j","j","right","(862, 362)",418,1,550.356543833963,-44.6360617581425,"718.97",208,4,1,1
"pilot3_2",135,"left","SHINEd_artichoke.jpg","incongruent","n",604.583134,"j","j","right","(148, 362)",453,1,608.998754979294,14.0061493871888,"2789.31",168,4,1,1
"pilot3_2",69,"right","SHINEd_avocado.jpg","congruent","n",552.862777,"j","j","right","(862, 362)",394,1,543.062252387421,-51.9303532046848,"813.96",294,4,1,1
"pilot3_2",220,"right","SHINEd_brownbeans.jpg","congruent","n",641.341515,"j","j","right","(862, 362)",366,1,664.065808332465,69.0732027403594,"1209.19",77,4,1,1
"pilot3_2",141,"left","SHINEd_brusselsprouts.jpg","incongruent","n",500.016362,"j","j","right","(148, 362)",265,1,505.724359851283,-89.2682457408226,"1267.74",205,4,1,1
"pilot3_2",146,"left","SHINEd_catcus.jpg","incongruent","n",735.928748,"j","j","right","(148, 362)",313,1,742.71372657794,147.721120985834,"1247.22",364,4,1,1
"pilot3_2",60,"left","SHINEd_catfish.jpg","incongruent","n",560.817204,"j","j","right","(148, 362)",361,1,549.078114079438,-45.9144915126676,"1585.19",31,4,1,1
"pilot3_2",130,"left","SHINEd_cheetah.jpg","incongruent","n",809.47138,"j","j","right","(148, 362)",245,1,812.810020252637,217.817414660532,"1425.84",199,3,0,1
"pilot3_2",152,"left","SHINEd_cottonplant.jpg","incongruent","n",541.277477,"j","j","right","(148, 362)",297,1,549.354832449928,-45.6377731421771,"1454.61",315,4,1,1
"pilot3_2",19,"right","SHINEd_couch.jpg","incongruent","m",648.205705,"f","f","left","(862, 362)",202,1,627.63537312085,32.6427675287442,"785.58",428,4,1,1
"pilot3_2",21,"left","SHINEd_dinosaur fossil.jpg","incongruent","n",669.797694,"j","j","right","(148, 362)",377,1,649.658154411512,54.665548819407,"1081.59",406,4,1,1
"pilot3_2",100,"right","SHINEd_discoball.jpg","incongruent","m",630.32421,"f","f","left","(862, 362)",226,1,627.200965892695,32.2083603005892,"810.01",419,4,0,1
"pilot3_2",14,"left","SHINEd_donkey.jpg","incongruent","n",0,".","j","right","(148, 362)",409,0,-21.6473126058075,-616.639918197913,"1426.82",426,3,1,1
"pilot3_2",47,"left","SHINEd_dragonfruit.jpg","incongruent","n",697.826677,"j","j","right","(148, 362)",437,1,683.287437190129,88.294831598024,"649.87",456,4,1,1
"pilot3_2",173,"right","SHINEd_durian.jpg","congruent","n",698.00818,"j","j","right","(862, 362)",374,1,710.608854501888,115.616248909783,"2931.3",78,4,1,1
"pilot3_2",30,"right","SHINEd_eucalyptus.jpg","congruent","n",593.787923,"j","j","right","(862, 362)",282,1,575.586948719495,-19.4056568726102,"1461.08",204,3,1,1
"pilot3_2",142,"left","SHINEd_fountain.jpg","congruent","m",503.907318,"f","f","left","(148, 362)",169,1,509.830711996614,-85.1618935954913,"1020.14",281,4,0,1
"pilot3_2",155,"right","SHINEd_fox.jpg","congruent","n",519.259543,"j","j","right","(862, 362)",334,1,527.983086885922,-67.0095187061828,"815.88",379,3,0,1
"pilot3_2",205,"left","SHINEd_frog.jpg","incongruent","n",562.949788,"j","j","right","(148, 362)",345,1,582.443139152493,-12.5494664396118,"1184.68",453,4,1,1
"pilot3_2",224,"left","SHINEd_goldenberry.jpg","incongruent","n",607.87232,"j","j","right","(148, 362)",397,1,631.45819791379,36.4655923216851,"1030.68",283,4,1,1
"pilot3_2",109,"right","SHINEd_grasshopper.jpg","congruent","n",531.163698,"j","j","right","(862, 362)",286,1,529.979019200677,-65.0135863914281,"866.25",416,4,1,1
"pilot3_2",37,"right","SHINEd_greenapple.jpg","congruent","n",525.256001,"j","j","right","(862, 362)",410,1,508.562799736815,-86.4298058552903,"2592.95",68,4,1,1
"pilot3_2",169,"right","SHINEd_honeydew.jpg","congruent","n",478.407752,"j","j","right","(862, 362)",330,1,490.146841920562,-104.845763671543,"1100.5",123,4,1,1
"pilot3_2",165,"left","SHINEd_horse.jpg","incongruent","n",607.588754,"j","j","right","(148, 362)",269,1,618.466259339237,23.4736537471314,"1459.02",110,4,1,1
"pilot3_2",82,"right","SHINEd_hyena.jpg","congruent","n",665.023289,"j","j","right","(862, 362)",422,1,658.022914276729,63.0303086846236,"1302.6",454,3,1,1
"pilot3_2",48,"left","SHINEd_koala.jpg","incongruent","n",613.268562,"j","j","right","(148, 362)",365,1,598.944718335461,3.95211274335536,"1201.87",100,4,1,1
"pilot3_2",78,"right","SHINEd_ladybug.jpg","congruent","n",615.69754,"j","j","right","(862, 362)",238,1,607.835580695403,12.842975103298,"718.44",398,4,1,1
"pilot3_2",164,"right","SHINEd_lotusroot.jpg","congruent","n",589.194471,"j","j","right","(862, 362)",298,1,599.856580193905,4.86397460180003,"1741.27",81,4,1,1
"pilot3_2",154,"right","SHINEd_manatee.jpg","congruent","n",755.877417,"j","j","right","(862, 362)",342,1,764.385564740591,169.392959148486,"720.32",146,4,1,1
"pilot3_2",72,"left","SHINEd_mizuna.jpg","incongruent","n",585.755656,"j","j","right","(148, 362)",429,1,576.601319823415,-18.3912857686905,"875.77",351,4,1,1
"pilot3_2",209,"left","SHINEd_mosquito.jpg","incongruent","n",585.837689,"j","j","right","(148, 362)",393,1,606.192624733819,11.2000191417138,"1307.13",58,4,1,1
"pilot3_2",9,"right","SHINEd_mushroom_other.jpg","congruent","n",921.880969,"j","j","right","(862, 362)",426,1,899.156675667535,304.16407007543,"1062.9",435,4,0,1
"pilot3_2",96,"left","SHINEd_okapi.jpg","incongruent","n",688.108563,"j","j","right","(148, 362)",425,1,684.123734311369,89.1311287192635,"1619.65",151,2,0,NA
"pilot3_2",18,"left","SHINEd_orchid.jpg","incongruent","n",628.901372,"j","j","right","(148, 362)",261,1,608.115643975518,13.1230383834128,"760.59",235,4,1,1
"pilot3_2",105,"right","SHINEd_peacockfeather.jpg","congruent","n",488.187284,"j","j","right","(862, 362)",382,1,486.141020619352,-108.851584972754,"1150.96",427,4,1,1
"pilot3_2",55,"left","SHINEd_pickle.jpg","incongruent","n",544.531236,"j","j","right","(148, 362)",373,1,531.715165352781,-63.2774402393246,"809.79",313,4,1,1
"pilot3_2",218,"left","SHINEd_platypus.jpg","incongruent","n",587.139123,"j","j","right","(148, 362)",293,1,609.432624041802,14.4400184496967,"1266.65",75,4,1,1
"pilot3_2",7,"right","SHINEd_pomegrant.jpg","congruent","n",707.966995,"j","j","right","(862, 362)",354,1,684.811909376872,89.8193037847672,"1275.25",395,4,1,1
"pilot3_2",101,"left","SHINEd_pumpkinseeds-.jpg","incongruent","n",537.580529,"j","j","right","(148, 362)",237,1,534.672681038026,-60.3199245540794,"731.96",450,4,1,1
"pilot3_2",129,"right","SHINEd_purple_yam.jpg","congruent","n",683.551135,"j","j","right","(862, 362)",442,1,686.674379107306,91.6817735152004,"978.19",340,4,1,1
"pilot3_2",207,"right","SHINEd_rabbitt.jpg","congruent","n",523.660247,"j","j","right","(862, 362)",350,1,543.584390443156,-51.4082151489489,"4219.92",349,4,1,1
"pilot3_2",149,"right","SHINEd_raccoon.jpg","congruent","n",497.351033,"j","j","right","(862, 362)",262,1,504.782200013934,-90.2104055781713,"1032.31",26,4,1,1
"pilot3_2",201,"right","SHINEd_red_Cabbage.jpg","congruent","n",555.035369,"j","j","right","(862, 362)",230,1,573.667135571168,-21.3254700209375,"901.33",449,4,1,1
"pilot3_2",38,"left","SHINEd_red_panda.jpg","incongruent","n",753.408701,"j","j","right","(148, 362)",273,1,736.930895882146,141.938290290041,"1646.89",393,2,1,NA
"pilot3_2",98,"left","SHINEd_rhino horn.jpg","incongruent","n",839.436678,"j","j","right","(148, 362)",249,1,835.882641602032,240.890036009926,"1327.43",36,4,1,1
"pilot3_2",160,"right","SHINEd_rose.jpg","congruent","n",522.257057,"j","j","right","(862, 362)",430,1,532.05758161258,-62.9350239795256,"922.41",213,4,1,1
"pilot3_2",94,"right","SHINEd_scallion.jpg","congruent","n",831.794422,"j","j","right","(862, 362)",314,1,827.378801020706,232.386195428601,"748.31",242,4,1,1
"pilot3_2",92,"right","SHINEd_skeleton-lizard.jpg","congruent","n",794.082829,"j","j","right","(862, 362)",250,1,789.236415730043,194.243810137938,"1058.67",185,4,1,1
"pilot3_2",183,"right","SHINEd_skunk.jpg","congruent","n",481.961112,"j","j","right","(862, 362)",290,1,496.715747955202,-98.276857636903,"1355.54",106,4,1,1
"pilot3_2",108,"left","SHINEd_soil.jpg","incongruent","n",846.770853,"j","j","right","(148, 362)",289,1,845.370778055346,250.378172463241,"1198.54",241,4,1,1
"pilot3_2",171,"right","SHINEd_spinach.jpg","congruent","n",405.650691,"j","j","right","(862, 362)",266,1,417.820573211225,-177.17203238088,"849.94",382,4,1,1
"pilot3_2",93,"left","SHINEd_starfruit.jpg","incongruent","n",717.741419,"j","j","right","(148, 362)",317,1,713.110401875374,118.117796283269,"797.95",227,4,1,1
"pilot3_2",5,"right","SHINEd_treestump.jpg","congruent","n",691.975775,"f","j","right","(862, 362)",414,0,668.38989708621,73.3972914941044,"1634.16",207,4,1,1
"pilot3_2",195,"left","SHINEd_vanillabean copy.jpg","incongruent","n",595.988621,"j","j","right","(148, 362)",329,1,613.328010699179,18.335405107074,"1678.71",73,4,1,1
"pilot3_2",62,"right","SHINEd_volcano copy.jpg","congruent","n",600.625537,"f","j","right","(862, 362)",234,0,589.317239370101,-5.67536622200474,"693",134,4,1,1
"pilot3_2",136,"left","SHINEd_whale.jpg","incongruent","n",577.588419,"j","j","right","(148, 362)",421,1,582.219436124626,-12.7731694674797,"1292.86",263,4,1,1
"pilot3_2",28,"right","SHINEd_wheat_stock.jpg","congruent","n",529.179312,"j","j","right","(862, 362)",358,1,510.547545428832,-84.445060163273,"1271.05",101,4,1,1
"pilot3_2",10,"left","SHINEd_white_strawberries.jpg","incongruent","n",749.129009,"j","j","right","(148, 362)",417,1,726.620111812867,131.627506220761,"1449.45",25,4,1,1
"pilot3_2",193,"left","SHINEd_worm.jpg","incongruent","n",597.137862,"f","j","right","(148, 362)",389,0,614.046459408517,19.0538538164112,"755.99",238,4,1,1
