"participant","trial_index","screenposition","stimulus","trialtype","classifyenc","rt","response","responsecorrect","responsecorrect_side","screenlocation","stimnum","acc","rtResidual","rtResidualC","rt_rec","trialno_rec","ratingConfidence","acc_rec","memoryHits.hc"
"pilot_13",145,"left","SHINEd_Ball_Basketball.jpg","incongruent","m",573.24655,"j","j","right","(148, 362)",130,1,582.25059896678,7.32353351063973,"3246.42",450,1,1,NA
"pilot_13",227,"left","SHINEd_Ball_Bowling.jpg","incongruent","m",495.990631,"f","j","right","(148, 362)",134,0,529.202287025009,-45.7247784311316,"745.66",17,4,1,1
"pilot_13",151,"right","SHINEd_BasketballHoop.jpg","congruent","m",546.577576,"j","j","right","(862, 362)",129,1,557.352913288114,-17.5741521680264,"1903.94",421,4,1,1
"pilot_13",177,"left","SHINEd_Bathtub.jpg","incongruent","m",593.773385,"j","j","right","(148, 362)",58,1,612.224305013894,37.2972395577533,"1016.51",21,4,1,1
"pilot_13",217,"left","SHINEd_BearPolar.jpg","congruent","n",446.733281,"j","f","left","(148, 362)",386,0,476.992789822786,-97.9342756333546,"780.97",27,4,1,1
"pilot_13",208,"left","SHINEd_Beater_Electric.jpg","incongruent","m",510.96337,"j","j","right","(148, 362)",42,1,538.565946340785,-36.3611191153553,"2164",455,3,1,1
"pilot_13",7,"right","SHINEd_Bells_Christmas.jpg","congruent","m",910.802946,"j","j","right","(862, 362)",225,1,879.067363576103,304.140298119962,"1200.19",156,4,1,1
"pilot_13",29,"left","SHINEd_Bench_Black.jpg","incongruent","m",531.402381,"j","j","right","(148, 362)",206,1,506.161522420993,-68.765543035147,"886.04",412,3,0,1
"pilot_13",169,"right","SHINEd_BicycleChain.jpg","congruent","m",510.211898,"j","j","right","(862, 362)",17,1,526.301100252115,-48.625965204025,"1501.13",299,4,1,1
"pilot_13",146,"left","SHINEd_Bicycle_Kids.jpg","incongruent","m",511.999825,"j","j","right","(148, 362)",26,1,521.299088687002,-53.6279767691379,"1133.87",369,3,0,1
"pilot_13",155,"right","SHINEd_Binder.jpg","congruent","m",626.105746,"j","j","right","(862, 362)",65,1,638.061942169003,63.1348767128627,"905.33",351,4,1,1
"pilot_13",123,"right","SHINEd_Bird_Eagle.jpg","incongruent","n",646.233482,"f","f","left","(862, 362)",257,1,648.742807121889,73.8157416657492,"2311.55",130,2,1,NA
"pilot_13",53,"right","SHINEd_Bird_Parrot.jpg","incongruent","n",532.516267,"f","f","left","(862, 362)",233,1,514.360561706328,-60.5665037498119,"1325.91",300,3,0,1
"pilot_13",27,"left","SHINEd_Bird_Pelican.jpg","congruent","n",602.002155,"f","f","left","(148, 362)",402,1,576.170866980549,1.24380152440839,"1342.81",448,3,0,1
"pilot_13",138,"right","SHINEd_Bleachers.jpg","congruent","m",476.103447,"j","j","right","(862, 362)",133,1,483.040992925224,-91.8860725309163,"1399.45",428,3,1,1
"pilot_13",141,"left","SHINEd_Boardgame_Chess.jpg","incongruent","m",462.445078,"j","j","right","(148, 362)",86,1,470.268268085891,-104.658797370249,"919.42",226,4,1,1
"pilot_13",46,"right","SHINEd_Boat_Colourful.jpg","congruent","m",701.457617,"j","j","right","(862, 362)",173,1,681.235408664772,106.308343208632,"915.96",134,4,1,1
"pilot_13",100,"left","SHINEd_Boot_Rain.jpg","incongruent","m",636.277584,"j","j","right","(148, 362)",150,1,631.996970556777,57.0699051006363,"3805.8",194,3,0,1
"pilot_13",3,"right","SHINEd_Bottle_Beer.jpg","congruent","m",554.436086,"j","j","right","(862, 362)",213,1,521.519644695214,-53.4074207609268,"1586.68",52,3,0,1
"pilot_13",125,"right","SHINEd_Bottle_Blue.jpg","congruent","m",516.518046,"j","j","right","(862, 362)",217,1,519.617800562334,-55.3092648938062,"1423.48",433,4,1,1
"pilot_13",131,"left","SHINEd_Bowl_Fruits.jpg","congruent","n",881.61359,"f","f","left","(148, 362)",434,1,886.484632883668,311.557567427528,"1464.1",253,4,1,1
"pilot_13",190,"right","SHINEd_Bowl_Wooden.jpg","congruent","m",474.445495,"j","j","right","(862, 362)",141,1,496.734206376784,-78.1928590793567,"2163.49",79,3,1,1
"pilot_13",147,"right","SHINEd_BowlingPin.jpg","congruent","m",715.650562,"j","j","right","(862, 362)",25,1,725.245040407225,150.317974951084,"1112.08",85,2,0,NA
"pilot_13",68,"left","SHINEd_Box_Notepaper.jpg","incongruent","m",514.449045,"j","j","right","(148, 362)",70,1,500.721560509663,-74.2055049464774,"2118.33",261,3,1,1
"pilot_13",212,"right","SHINEd_Branch.jpg","incongruent","n",597.089991,"f","f","left","(862, 362)",333,1,625.873426221674,50.9463607655339,"3221.69",338,2,1,NA
"pilot_13",4,"left","SHINEd_Briefcase_Leather.jpg","incongruent","m",796.795026,"f","j","right","(148, 362)",210,0,764.173799415436,189.246733959295,"1304.04",18,2,0,NA
"pilot_13",202,"right","SHINEd_Broccoli.jpg","incongruent","n",489.73045,"f","f","left","(862, 362)",253,1,515.561738019451,-59.3653274366891,"1164.86",149,3,1,1
"pilot_13",139,"left","SHINEd_Bucket_Rusty.jpg","incongruent","m",581.91866,"f","j","right","(148, 362)",34,0,589.151420645446,14.224355189306,"2958.15",271,3,0,1
"pilot_13",189,"left","SHINEd_Bugle.jpg","incongruent","m",462.479731,"j","j","right","(148, 362)",14,1,484.473227656561,-90.453837799579,"1431.25",207,3,1,1
"pilot_13",194,"right","SHINEd_BusStop.jpg","congruent","m",510.78116,"j","j","right","(862, 362)",145,1,534.250730257673,-40.6763351984675,"1830.91",90,4,1,1
"pilot_13",28,"left","SHINEd_Butterfly.jpg","congruent","n",469.765413,"f","f","left","(148, 362)",318,1,444.229339700771,-130.697725755369,"840.38",97,4,1,1
"pilot_13",201,"right","SHINEd_Cabinet_Display.jpg","congruent","m",406.649627,"j","j","right","(862, 362)",205,1,432.185700299229,-142.741365156911,"1302.51",166,3,1,1
"pilot_13",168,"left","SHINEd_Calculator.jpg","incongruent","m",731.541877,"j","j","right","(148, 362)",94,1,747.335864531893,172.408799075753,"1878.41",59,2,0,NA
"pilot_13",62,"right","SHINEd_Camera_Video.jpg","congruent","m",581.185777,"j","j","right","(862, 362)",97,1,565.687004188329,-9.2400612678111,"2893.44",286,2,0,NA
"pilot_13",192,"left","SHINEd_Cane_Metal.jpg","incongruent","m",495.419887,"j","j","right","(148, 362)",190,1,518.299027817228,-56.6280376389121,"1111.69",280,2,1,NA
"pilot_13",226,"right","SHINEd_Cannon.jpg","congruent","m",598.857685,"j","j","right","(862, 362)",61,1,631.774126304786,56.847060848646,"2158.85",268,2,1,NA
"pilot_13",105,"left","SHINEd_Cantaloupe.jpg","congruent","n",477.094798,"f","f","left","(148, 362)",338,1,474.290258157888,-100.636807298252,"1222.62",380,3,0,1
"pilot_13",186,"left","SHINEd_Car_Vintage.jpg","incongruent","m",466.86566,"j","j","right","(148, 362)",186,1,487.973512495894,-86.9535529602459,"1936.19",93,3,0,1
"pilot_13",113,"right","SHINEd_Carabiner_Orange.jpg","congruent","m",524.305141,"j","j","right","(862, 362)",29,1,523.862318919667,-51.0647465364738,"1236.92",438,2,1,NA
"pilot_13",44,"right","SHINEd_Carrot.jpg","incongruent","n",540.506777,"f","f","left","(862, 362)",281,1,519.694139224328,-55.2329262318125,"2037.08",332,3,1,1
"pilot_13",117,"left","SHINEd_CasketOpen.jpg","incongruent","m",613.807582,"j","j","right","(148, 362)",218,1,614.545618800556,39.6185533444154,"884.76",99,4,1,1
"pilot_13",51,"left","SHINEd_Cat.jpg","congruent","n",500.061565,"f","f","left","(148, 362)",362,1,481.315430265884,-93.6116351902565,"679.39",70,4,1,1
"pilot_13",150,"right","SHINEd_ChainRusty.jpg","congruent","m",479.533249,"j","j","right","(862, 362)",21,1,490.013371567892,-84.9136938882487,"751.17",221,4,1,1
"pilot_13",197,"right","SHINEd_Chair_High.jpg","congruent","m",457.119203,"j","j","right","(862, 362)",209,1,481.47441741834,-93.4526480378006,"1542.38",362,3,0,1
"pilot_13",148,"left","SHINEd_ChalkboardEraser.jpg","incongruent","m",560.019114,"j","j","right","(148, 362)",62,1,569.908807127447,-5.01825832869338,"1918.24",330,4,0,1
"pilot_13",161,"left","SHINEd_Cheesegrater_Handheld.jpg","incongruent","m",528.084044,"j","j","right","(148, 362)",162,1,541.811528490337,-33.1155369658035,"1084.85",34,4,1,1
"pilot_13",173,"left","SHINEd_Cherry.jpg","congruent","n",595.288291,"f","f","left","(148, 362)",258,1,612.558352133004,37.6312866768641,"3694.51",346,3,0,1
"pilot_13",70,"left","SHINEd_Clarinet.jpg","incongruent","m",954.687978,"j","j","right","(148, 362)",6,1,941.550922950108,366.623857493967,"2008.54",88,3,0,1
"pilot_13",72,"left","SHINEd_Clip_Paper.jpg","incongruent","m",562.633864,"j","j","right","(148, 362)",66,1,550.087238390552,-24.8398270655881,"927.26",159,4,1,1
"pilot_13",191,"right","SHINEd_Clock_Radio.jpg","congruent","m",460.852315,"j","j","right","(862, 362)",93,1,483.436241097006,-91.4908243591345,"898.4",127,4,1,1
"pilot_13",126,"left","SHINEd_ClothCoaster.jpg","incongruent","m",368.518511,"j","j","right","(148, 362)",142,1,371.913480282556,-203.013585173584,"982.49",313,4,1,1
"pilot_13",174,"right","SHINEd_Cloud.jpg","incongruent","n",791.143575,"f","f","left","(862, 362)",385,1,808.708850853227,233.781785397087,"709.08",112,4,1,1
"pilot_13",20,"right","SHINEd_Colander.jpg","congruent","m",600.465318,"j","j","right","(862, 362)",41,1,572.567526938993,-2.3595385171477,"1462.25",336,3,1,1
"pilot_13",199,"right","SHINEd_Collards.jpg","incongruent","n",496.612013,"f","f","left","(862, 362)",445,1,521.557656858784,-53.369408597356,"1455.55",182,3,1,1
"pilot_13",166,"right","SHINEd_Corn.jpg","incongruent","n",683.747398,"f","f","left","(862, 362)",337,1,698.950956091448,124.023890635308,"3230.26",344,3,0,1
"pilot_13",220,"left","SHINEd_Cranberry.jpg","congruent","n",520.901419,"f","f","left","(148, 362)",398,1,552.046571983453,-22.8804934726877,"1014.32",443,3,0,1
"pilot_13",196,"right","SHINEd_Crown.jpg","congruent","m",411.942787,"j","j","right","(862, 362)",193,1,436.002786698117,-138.924278758023,"1485.68",306,3,0,1
"pilot_13",210,"left","SHINEd_Currants.jpg","congruent","n",551.783008,"f","f","left","(148, 362)",254,1,579.97601378123,5.04894832508926,"1154.17",71,3,0,1
"pilot_13",15,"right","SHINEd_DeepFryer.jpg","congruent","m",688.572773,"j","j","right","(862, 362)",161,1,659.198908337881,84.2718428817408,"1064.16",116,4,1,1
"pilot_13",25,"right","SHINEd_DentalFloss.jpg","congruent","m",745.452993,"j","j","right","(862, 362)",117,1,719.031275540104,144.104210083964,"1439.61",202,4,1,1
"pilot_13",153,"left","SHINEd_Deodorant.jpg","incongruent","m",785.265374,"j","j","right","(148, 362)",118,1,796.631140728558,221.704075272418,"2247.19",325,4,1,1
"pilot_13",137,"right","SHINEd_Desk_School.jpg","congruent","m",680.694304,"j","j","right","(862, 362)",201,1,687.336635205002,112.409569748861,"990.82",345,1,0,NA
"pilot_13",11,"right","SHINEd_Dice.jpg","congruent","m",670.762204,"j","j","right","(862, 362)",89,1,640.207480456992,65.2804150008516,"1270.36",118,4,1,1
"pilot_13",175,"right","SHINEd_DogHouse.jpg","congruent","m",531.482347,"j","j","right","(862, 362)",165,1,549.342837573449,-25.5842278826912,"1167.03",189,4,1,1
"pilot_13",180,"left","SHINEd_Dog_Bulldog.jpg","congruent","n",523.952256,"f","f","left","(148, 362)",326,1,543.288820174561,-31.6382452815797,"3473.94",73,2,0,NA
"pilot_13",47,"right","SHINEd_Dog_ChowChow.jpg","incongruent","n",537.145405,"f","f","left","(862, 362)",369,1,517.218411384995,-57.7086540711457,"1424.05",206,3,1,1
"pilot_13",176,"left","SHINEd_Dog_CockerSpaniel.jpg","congruent","n",454.492512,"f","f","left","(148, 362)",306,1,472.648217293671,-102.278848162469,"1184.98",29,4,1,1
"pilot_13",159,"right","SHINEd_DoorKnob.jpg","congruent","m",599.766185,"j","j","right","(862, 362)",53,1,612.903240049892,37.9761745937519,"2622.35",211,2,0,NA
"pilot_13",21,"left","SHINEd_Door_Green.jpg","incongruent","m",660.375443,"f","j","right","(148, 362)",106,0,632.772866659215,57.8458012030746,"959.62",126,4,1,1
"pilot_13",9,"left","SHINEd_Dragonfly.jpg","congruent","n",600.317917,"f","f","left","(148, 362)",346,1,569.172764016547,-5.75430143959306,"815.25",372,4,1,1
"pilot_13",34,"left","SHINEd_Drill.jpg","incongruent","m",535.132046,"j","j","right","(148, 362)",30,1,511.367261022105,-63.5598044340356,"2144.08",77,3,1,1
"pilot_13",89,"right","SHINEd_Drum_Bongos.jpg","congruent","m",583.383921,"j","j","right","(862, 362)",9,1,575.855945634331,0.928880178190951,"4733.89",210,2,1,NA
"pilot_13",16,"left","SHINEd_DustPan.jpg","incongruent","m",636.874904,"j","j","right","(148, 362)",54,1,607.796254058103,32.8691886019631,"1352.65",122,3,1,1
"pilot_13",74,"left","SHINEd_ElectricOutlet.jpg","incongruent","m",569.079035,"j","j","right","(148, 362)",102,1,557.122838830997,-17.8042266251436,"646.46",43,4,1,1
"pilot_13",115,"right","SHINEd_Elephant.jpg","incongruent","n",507.880979,"j","f","left","(862, 362)",349,0,508.028586360111,-66.8984790960292,"1311.47",198,4,1,1
"pilot_13",78,"right","SHINEd_Escalator.jpg","congruent","m",662.604874,"j","j","right","(862, 362)",177,1,651.829536711886,76.9024712557457,"988.35",146,3,0,1
"pilot_13",76,"left","SHINEd_Feet.jpg","congruent","n",727.801027,"f","f","left","(148, 362)",310,1,716.435260271441,141.508194815301,"1342.92",153,4,0,1
"pilot_13",181,"right","SHINEd_FileDivider.jpg","congruent","m",624.811618,"j","j","right","(862, 362)",69,1,644.443396894783,69.5163314386425,"1368.34",385,2,1,NA
"pilot_13",213,"right","SHINEd_Fish_Rockbass.jpg","incongruent","n",521.580053,"f","f","left","(862, 362)",341,1,550.658702941897,-24.2683625142438,"1285.02",13,4,1,1
"pilot_13",171,"left","SHINEd_Flamingo_Real.jpg","congruent","n",501.770743,"f","f","left","(148, 362)",406,1,518.45037469256,-56.4766907635805,"791.74",393,4,1,1
"pilot_13",8,"left","SHINEd_Flashlight.jpg","incongruent","m",572.140929,"j","j","right","(148, 362)",98,1,540.700561296325,-34.2265041598153,"1144.01",222,4,1,1
"pilot_13",49,"right","SHINEd_FlipFlop_PairBlue.jpg","congruent","m",606.126684,"j","j","right","(862, 362)",153,1,586.790119825439,11.8630543692989,"3510.9",430,1,1,NA
"pilot_13",104,"left","SHINEd_Fruit_Orange.jpg","congruent","n",521.709831,"f","f","left","(148, 362)",302,1,518.610076437666,-56.3169890184745,"1725.27",237,1,0,NA
"pilot_13",101,"left","SHINEd_Fryingpan.jpg","incongruent","m",527.489755,"j","j","right","(148, 362)",158,1,523.504356276999,-51.4227091791415,"2903.36",411,3,0,1
"pilot_13",73,"right","SHINEd_Gametable_AirHockey.jpg","congruent","m",718.230394,"j","j","right","(862, 362)",85,1,705.978983110774,131.051917654634,"943.11",392,4,1,1
"pilot_13",183,"left","SHINEd_Gecko.jpg","congruent","n",495.533251,"f","f","left","(148, 362)",370,1,515.755459335227,-59.1716061209128,"1055.55",358,3,0,1
"pilot_13",108,"right","SHINEd_Giraffe.jpg","incongruent","n",544.839972,"f","f","left","(862, 362)",381,1,542.921076318555,-32.0059891375853,"1975.41",312,3,1,1
"pilot_13",182,"left","SHINEd_Glove_Rubber.jpg","incongruent","m",821.114992,"j","j","right","(148, 362)",138,1,841.041985615005,266.114920158865,"1087.09",408,3,0,1
"pilot_13",122,"right","SHINEd_Gloves_WhiteKnit.jpg","congruent","m",849.127413,"f","j","right","(862, 362)",197,0,851.341523401667,276.414457945527,"886.69",111,4,1,1
"pilot_13",23,"left","SHINEd_Goat.jpg","congruent","n",515.136887,"j","f","left","(148, 362)",322,0,488.12474009966,-86.8023253564808,"1266.07",233,2,0,NA
"pilot_13",42,"right","SHINEd_Gorilla.jpg","incongruent","n",582.808072,"f","f","left","(862, 362)",285,1,561.405004783883,-13.5220606722571,"1134.63",352,4,1,1
"pilot_13",120,"left","SHINEd_Grape.jpg","congruent","n",489.626016,"f","f","left","(148, 362)",274,1,491.249696961223,-83.6773684949177,"1359.19",442,4,1,1
"pilot_13",187,"right","SHINEd_Gum_Pack.jpg","congruent","m",710.892431,"j","j","right","(862, 362)",77,1,732.295498216117,157.368432759976,"870.64",314,4,1,1
"pilot_13",130,"left","SHINEd_HairClip.jpg","incongruent","m",711.185062,"j","j","right","(148, 362)",194,1,715.760890163446,140.833824707305,"2584.39",37,3,1,1
"pilot_13",80,"right","SHINEd_HairDryer.jpg","congruent","m",621.709497,"f","j","right","(862, 362)",45,0,611.524589152331,36.5975236961903,"1178.06",76,3,1,1
"pilot_13",116,"right","SHINEd_Hat_Baseball.jpg","congruent","m",554.478297,"j","j","right","(862, 362)",189,1,554.921119080333,-20.0059463758069,"1080.15",383,4,1,1
"pilot_13",112,"left","SHINEd_Heater_Outdoor.jpg","incongruent","m",393.204687,"j","j","right","(148, 362)",170,1,392.466650199444,-182.460415256696,"4404.38",264,2,0,NA
"pilot_13",1,"left","SHINEd_Helmet_Bicycle.jpg","incongruent","m",0,".","j","right","(148, 362)",18,0,-33.5068707452258,-608.433936201366,"1582.92",188,1,1,NA
"pilot_13",5,"right","SHINEd_HotWaterBottle.jpg","congruent","m",943.856132,"f","j","right","(862, 362)",113,0,911.530120135658,336.603054679518,"1283.07",123,3,1,1
"pilot_13",218,"left","SHINEd_Hourglass.jpg","incongruent","m",600.639964,"j","j","right","(148, 362)",110,1,631.194687543008,56.2676220868676,"2256.94",72,3,0,1
"pilot_13",205,"left","SHINEd_Jacket_Suit.jpg","incongruent","m",557.328259,"j","j","right","(148, 362)",2,1,584.045191180118,9.11812572397777,"769.9",26,4,1,1
"pilot_13",223,"right","SHINEd_Jetski.jpg","congruent","m",0,".","j","right","(862, 362)",181,0,32.0307971441196,-542.896268312021,"1815.93",179,3,1,1
"pilot_13",167,"right","SHINEd_Kettle.jpg","congruent","m",590.983942,"j","j","right","(862, 362)",157,1,606.482714811671,31.5556493555303,"655.07",51,4,1,1
"pilot_13",152,"left","SHINEd_Kite_Rainbow.jpg","incongruent","m",773.917857,"f","j","right","(148, 362)",78,0,784.988409008336,210.061343552196,"1792.35",416,4,1,1
"pilot_13",163,"right","SHINEd_Knee.jpg","incongruent","n",439.408961,"j","f","left","(862, 362)",309,0,453.726874930781,-121.200190525359,"1518.13",185,4,1,1
"pilot_13",154,"right","SHINEd_Knife_Camping.jpg","congruent","m",742.261338,"j","j","right","(862, 362)",37,1,753.922319448781,178.99525399264,"1231.18",331,4,1,1
"pilot_13",172,"left","SHINEd_LawnMower.jpg","incongruent","m",504.87611,"j","j","right","(148, 362)",46,1,521.850956412782,-53.0761090433581,"919.31",422,4,0,1
"pilot_13",24,"right","SHINEd_Leaf_Clover.jpg","incongruent","n",663.258417,"j","f","left","(862, 362)",449,0,636.541484819882,61.6144193637415,"911.62",326,3,0,1
"pilot_13",26,"right","SHINEd_Leek.jpg","incongruent","n",716.7959,"f","f","left","(862, 362)",357,1,690.669397260326,115.742331804186,"1990.99",215,4,1,1
"pilot_13",215,"right","SHINEd_Leg.jpg","incongruent","n",585.38652,"f","f","left","(862, 362)",405,1,615.055599382341,40.1285339262008,"765.93",133,4,1,1
"pilot_13",209,"left","SHINEd_LightHouse.jpg","incongruent","m",722.713106,"j","j","right","(148, 362)",146,1,750.610897061007,175.683831604867,"983.63",395,4,1,1
"pilot_13",133,"right","SHINEd_Lilypad.jpg","incongruent","n",713.953718,"f","f","left","(862, 362)",413,1,719.415190324112,144.488124867972,"1013.17",379,4,1,1
"pilot_13",164,"left","SHINEd_Lips_Real.jpg","congruent","n",730.00325,"f","f","left","(148, 362)",390,1,744.616378651004,169.689313194863,"1102.28",181,4,1,1
"pilot_13",50,"left","SHINEd_Lipstick.jpg","incongruent","m",576.736722,"j","j","right","(148, 362)",198,1,557.695372545662,-17.2316929104787,"1471.08",436,4,0,1
"pilot_13",10,"right","SHINEd_Lychee.jpg","incongruent","n",763.191128,"j","f","left","(862, 362)",321,0,732.34118973677,157.414124280629,"1783.54",367,2,0,NA
"pilot_13",33,"left","SHINEd_Lynx.jpg","congruent","n",643.636508,"f","f","left","(148, 362)",438,1,619.576508301883,44.6494428457422,"4744.43",119,2,1,NA
"pilot_13",35,"right","SHINEd_Magnifying_Glass.jpg","congruent","m",0,".","j","right","(862, 362)",105,0,-23.4695702576729,-598.396635713813,"746.68",54,4,1,1
"pilot_13",17,"right","SHINEd_Makeup_Compact.jpg","congruent","m",822.654221,"j","j","right","(862, 362)",121,1,793.870785778326,218.943720322185,"959.88",171,4,1,1
"pilot_13",219,"right","SHINEd_Mango.jpg","incongruent","n",501.570139,"f","f","left","(862, 362)",277,1,532.42007726323,-42.50698819291,"3594.06",3,2,0,NA
"pilot_13",88,"left","SHINEd_Mask_HockeyGoalie.jpg","incongruent","m",532.828826,"f","j","right","(148, 362)",126,0,525.005635914109,-49.9214295420313,"958.01",284,4,1,1
"pilot_13",52,"right","SHINEd_Mattress.jpg","congruent","m",672.03819,"j","j","right","(862, 362)",49,1,653.587269986106,78.6602045299659,"1080.41",110,4,1,1
"pilot_13",160,"right","SHINEd_Megaphone.jpg","congruent","m",699.659712,"j","j","right","(862, 362)",101,1,713.091981770115,138.164916313974,"62.08",376,2,0,NA
"pilot_13",188,"left","SHINEd_Mirror_Makeup.jpg","incongruent","m",810.202988,"j","j","right","(148, 362)",122,1,831.901269936339,256.974204480199,"1881.66",254,3,0,1
"pilot_13",203,"right","SHINEd_Mitt_Oven.jpg","congruent","m",477.135721,"f","j","right","(862, 362)",137,0,503.262223739673,-71.6648417164668,"872.39",49,4,1,1
"pilot_13",77,"left","SHINEd_MobilityScooter.jpg","incongruent","m",788.850047,"j","j","right","(148, 362)",182,1,777.779494991664,202.852429535523,"1695.64",318,3,0,1
"pilot_13",178,"right","SHINEd_MusicSheet.jpg","congruent","m",853.811114,"j","j","right","(862, 362)",13,1,872.557248734116,297.630183277976,"1444.26",409,4,0,1
"pilot_13",55,"left","SHINEd_Nail.jpg","incongruent","m",643.888075,"j","j","right","(148, 362)",38,1,626.322799146773,51.3957336906327,"1333.98",451,3,0,1
"pilot_13",107,"left","SHINEd_Nuts_Pecan.jpg","congruent","n",477.522613,"f","f","left","(148, 362)",246,1,475.308502598333,-99.6185628578077,"1518.92",418,3,0,1
"pilot_13",214,"left","SHINEd_Nuts_Walnut.jpg","congruent","n",469.797307,"j","f","left","(148, 362)",446,0,499.171171662119,-75.7558937940215,"2680.56",143,3,0,1
"pilot_13",45,"right","SHINEd_Oyster.jpg","incongruent","n",736.065243,"f","f","left","(862, 362)",433,1,715.54781994455,140.62075448841,"873.86",23,4,1,1
"pilot_13",82,"right","SHINEd_Pacifier.jpg","congruent","m",548.727999,"j","j","right","(862, 362)",81,1,539.133520592775,-35.7935448633652,"2168.63",173,3,0,1
"pilot_13",111,"right","SHINEd_Pants_Firefighter.jpg","congruent","m",476.1865,"f","j","right","(862, 362)",1,0,475.153248479222,-99.7738169769184,"808.22",104,4,1,1
"pilot_13",96,"right","SHINEd_Paw.jpg","incongruent","n",552.351799,"f","f","left","(862, 362)",301,1,546.890326675887,-28.0367387802529,"688.63",67,4,1,1
"pilot_13",195,"left","SHINEd_PencilSharpener.jpg","incongruent","m",457.47564,"j","j","right","(148, 362)",74,1,481.240424977895,-93.6866404782452,"1470.51",322,3,0,1
"pilot_13",121,"left","SHINEd_PictureFrame.jpg","incongruent","m",605.108625,"j","j","right","(148, 362)",222,1,607.027520681445,32.1004552253045,"2910.05",265,2,1,NA
"pilot_13",206,"right","SHINEd_Pineapple.jpg","incongruent","n",560.840433,"f","f","left","(862, 362)",353,1,587.85257990034,12.9255144442,"1679.15",292,3,0,1
"pilot_13",99,"left","SHINEd_Pumpkin.jpg","congruent","n",504.265066,"f","f","left","(148, 362)",294,1,499.689237836554,-75.237827619586,"934.48",9,4,1,1
"pilot_13",22,"right","SHINEd_Quartz.jpg","incongruent","n",911.441532,"f","f","left","(862, 362)",401,1,884.134170379437,309.207104923297,"886.88",231,4,1,1
"pilot_13",57,"left","SHINEd_Radish.jpg","congruent","n",667.08416,"f","f","left","(148, 362)",242,1,650.109313587218,75.1822481310774,"1020.92",329,1,0,NA
"pilot_13",64,"left","SHINEd_RamAnimal.jpg","congruent","n",493.067798,"f","f","left","(148, 362)",454,1,478.159454628774,-96.7676108273666,"984.34",66,4,1,1
"pilot_13",43,"right","SHINEd_RecordPlayer.jpg","congruent","m",761.057157,"j","j","right","(862, 362)",149,1,739.949304504105,165.022239047965,"2168.33",184,2,1,NA
"pilot_13",184,"left","SHINEd_RollerBlade.jpg","incongruent","m",426.526015,"j","j","right","(148, 362)",178,1,447.04343805545,-127.883627400691,"934.03",373,3,0,1
"pilot_13",13,"right","SHINEd_Ruler_Wooden.jpg","congruent","m",671.642932,"j","j","right","(862, 362)",73,1,641.678637897436,66.7515724412961,"799.04",296,4,1,1
"pilot_13",140,"right","SHINEd_Saw.jpg","congruent","m",618.588557,"j","j","right","(862, 362)",33,1,626.116532365669,51.1894669095283,"1254.93",349,3,1,1
"pilot_13",225,"left","SHINEd_Scooter.jpg","incongruent","m",491.787109,"j","j","right","(148, 362)",174,1,524.408335584564,-50.5187298715762,"1289.55",108,3,0,1
"pilot_13",142,"left","SHINEd_Seashell_BayScallop.jpg","congruent","n",529.889723,"f","f","left","(148, 362)",270,1,538.008127806113,-36.9189376500271,"1062.43",244,4,1,1
"pilot_13",222,"right","SHINEd_ShoppingCart.jpg","congruent","m",568.386944,"j","j","right","(862, 362)",109,1,600.122526423897,25.1954609677568,"2309.95",390,3,0,1
"pilot_13",59,"right","SHINEd_Skates.jpg","congruent","m",482.774022,"j","j","right","(862, 362)",125,1,466.389605027662,-108.537460428478,"872.32",150,4,1,1
"pilot_13",109,"left","SHINEd_SkullDeer.jpg","congruent","n",445.282452,"f","f","left","(148, 362)",278,1,443.658771038777,-131.268294417363,"867.42",456,1,1,NA
"pilot_13",128,"left","SHINEd_Slide.jpg","incongruent","m",543.666962,"j","j","right","(148, 362)",82,1,547.652360723001,-27.2747047331393,"1377.36",144,3,1,1
"pilot_13",58,"left","SHINEd_Slippers.jpg","incongruent","m",566.950476,"j","j","right","(148, 362)",154,1,550.27084430744,-24.6562211487004,"1046.06",364,4,1,1
"pilot_13",179,"right","SHINEd_Snail.jpg","incongruent","n",560.794517,"f","f","left","(862, 362)",241,1,579.835866454338,4.90880099819801,"1944.08",201,3,0,1
"pilot_13",185,"left","SHINEd_Starfish.jpg","congruent","n",351.109332,"j","f","left","(148, 362)",378,0,371.921969775672,-203.005095680468,"1143.36",419,3,0,1
"pilot_13",6,"left","SHINEd_Swing_Child.jpg","incongruent","m",0,".","j","right","(148, 362)",166,0,-32.0307971441197,-606.95786260026,"2919.03",278,3,1,1
"pilot_13",134,"right","SHINEd_Switch_LightWhite.jpg","congruent","m",596.287173,"j","j","right","(862, 362)",57,1,602.043860044335,27.1167945881945,"2271.94",260,2,1,NA
"pilot_13",60,"left","SHINEd_Teapot.jpg","incongruent","m",438.156198,"f","j","right","(148, 362)",214,0,422.066995747885,-152.860069708256,"2536.19",398,4,1,1
"pilot_13",19,"left","SHINEd_TissueBox.jpg","incongruent","m",444.820902,"j","j","right","(148, 362)",50,1,416.62789621877,-158.29916923737,"912.79",35,4,1,1
"pilot_13",135,"right","SHINEd_Toad.jpg","incongruent","n",839.517354,"f","f","left","(862, 362)",441,1,845.569255764557,270.642190308417,"1454.55",354,4,0,1
"pilot_13",2,"left","SHINEd_Tomato.jpg","congruent","n",670.204445,"f","f","left","(148, 362)",450,1,636.992788974991,62.0657235188507,"2191.32",339,1,1,NA
"pilot_13",106,"right","SHINEd_Tree_Fir.jpg","incongruent","n",417.306332,"f","f","left","(862, 362)",229,1,414.79700687811,-160.13005857803,"1015.76",424,4,1,1
"pilot_13",61,"right","SHINEd_Turtle.jpg","incongruent","n",481.226113,"f","f","left","(862, 362)",305,1,465.432125468107,-109.494939988033,"904.79",381,4,1,1
"pilot_13",228,"left","SHINEd_USBKey.jpg","incongruent","m",467.439477,"j","j","right","(148, 362)",90,1,500.946347745231,-73.9807177109093,"1349.89",355,4,1,1
"pilot_13",75,"right","SHINEd_Vase_Decorative copy.jpg","congruent","m",484.818755,"j","j","right","(862, 362)",221,1,473.157773551219,-101.769291904921,"1653.43",308,2,1,NA
"pilot_13",118,"right","SHINEd_Vest.jpg","congruent","m",600.715792,"j","j","right","(862, 362)",5,1,601.749043520778,26.8219780646376,"946.27",16,4,1,1
"pilot_13",12,"right","SHINEd_WatermelonSlice.jpg","incongruent","n",0,".","f","left","(862, 362)",325,0,-30.2595088227858,-605.186574278926,"2865.59",256,2,0,NA
"pilot_13",98,"left","SHINEd_Weights_Dumbells.jpg","incongruent","m",507.804505,"j","j","right","(148, 362)",22,1,502.933462116332,-71.9936033398083,"872.36",232,4,1,1
"pilot_13",71,"right","SHINEd_Wheel_Steering.jpg","congruent","m",655.152005,"j","j","right","(862, 362)",185,1,642.31016467033,67.3830992141896,"3980.87",281,3,1,1
"pilot_13",165,"left","SHINEd_accordion.jpg","incongruent","m",647.739627,"j","j","right","(148, 362)",10,1,662.647970371226,87.7209049150858,"2396.45",262,2,1,NA
"pilot_13",119,"left","SHINEd_airpump.jpg","incongruent","m",702.94718,"j","j","right","(148, 362)",114,1,704.275646241,129.34858078486,"770.22",50,4,1,1
"pilot_13",41,"left","SHINEd_antlers.jpg","congruent","n",681.02534,"f","f","left","(148, 362)",418,1,659.327058063661,84.3999926075206,"790.07",417,4,1,1
"pilot_13",48,"right","SHINEd_artichoke.jpg","incongruent","n",457.706811,"f","f","left","(862, 362)",453,1,438.075032105217,-136.852033350923,"1579.42",56,3,0,1
"pilot_13",86,"left","SHINEd_avocado.jpg","congruent","n",517.114154,"f","f","left","(148, 362)",394,1,508.700534473664,-66.2265309824759,"1774.23",375,3,1,1
"pilot_13",66,"left","SHINEd_brownbeans.jpg","congruent","n",413.127031,"f","f","left","(148, 362)",366,1,398.809117069218,-176.117948386922,"2800.32",95,3,0,1
"pilot_13",31,"right","SHINEd_brusselsprouts.jpg","incongruent","n",652.372729,"f","f","left","(862, 362)",265,1,627.722299861438,52.7952344052976,"4485.94",405,3,1,1
"pilot_13",38,"right","SHINEd_catcus.jpg","incongruent","n",847.462178,"j","f","left","(862, 362)",313,0,824.878251902994,249.951186446854,"1647.49",191,2,0,NA
"pilot_13",83,"right","SHINEd_catfish.jpg","incongruent","n",642.378887,"f","f","left","(862, 362)",361,1,633.079623312997,58.1525578568571,"1037.71",319,4,1,1
"pilot_13",124,"right","SHINEd_cheetah.jpg","incongruent","n",456.682867,"f","f","left","(862, 362)",245,1,459.487406842112,-115.439658614029,"1517.21",277,2,0,NA
"pilot_13",193,"right","SHINEd_cottonplant.jpg","incongruent","n",499.109985,"f","f","left","(862, 362)",297,1,522.28434053745,-52.6427249186898,"1074.41",151,4,1,1
"pilot_13",36,"left","SHINEd_couch.jpg","incongruent","m",631.129672,"j","j","right","(148, 362)",202,1,607.955316462549,33.0282510064091,"981.14",403,4,1,1
"pilot_13",79,"right","SHINEd_dinosaur fossil.jpg","incongruent","n",523.031031,"f","f","left","(862, 362)",377,1,512.550908432108,-62.3761570240321,"1287.37",290,4,1,1
"pilot_13",40,"left","SHINEd_discoball.jpg","incongruent","m",669.414095,"j","j","right","(148, 362)",226,1,647.420598343439,72.4935328872982,"1040.22",357,4,1,1
"pilot_13",157,"right","SHINEd_donkey.jpg","incongruent","n",584.403344,"f","f","left","(862, 362)",409,1,596.949969609448,22.0229041533073,"840.2",57,4,1,1
"pilot_13",56,"right","SHINEd_dragonfruit.jpg","incongruent","n",600.062833,"f","f","left","(862, 362)",437,1,582.792771866995,7.86570641085503,"1130.14",131,4,1,1
"pilot_13",162,"left","SHINEd_durian.jpg","congruent","n",475.7413,"f","f","left","(148, 362)",374,1,489.763999210559,-85.1630662455811,"968.28",220,4,1,1
"pilot_13",37,"left","SHINEd_eucalyptus.jpg","congruent","n",570.303251,"f","f","left","(148, 362)",282,1,547.424110182772,-27.5029552733686,"1049.91",161,1,0,NA
"pilot_13",54,"right","SHINEd_fountain.jpg","congruent","m",664.159363,"j","j","right","(862, 362)",169,1,646.298872426551,71.3718069704105,"928.54",350,3,1,1
"pilot_13",211,"left","SHINEd_fox.jpg","congruent","n",530.833189,"f","f","left","(148, 362)",334,1,559.321409501452,-15.6056559546885,"632.31",61,4,1,1
"pilot_13",85,"right","SHINEd_frog.jpg","incongruent","n",601.38987,"f","f","left","(862, 362)",345,1,592.681035753442,17.7539702973017,"999.46",251,4,1,1
"pilot_13",91,"right","SHINEd_goldenberry.jpg","incongruent","n",510.618194,"f","f","left","(862, 362)",397,1,503.680648074776,-71.2464173813644,"1685.26",289,2,0,NA
"pilot_13",102,"left","SHINEd_grasshopper.jpg","congruent","n",554.339083,"f","f","left","(148, 362)",286,1,550.648898997221,-24.2781664589192,"1327.01",103,4,1,1
"pilot_13",92,"left","SHINEd_greenapple.jpg","congruent","n",594.237259,"f","f","left","(148, 362)",410,1,587.594927794998,12.6678623388579,"1064.61",204,2,0,NA
"pilot_13",200,"left","SHINEd_honeydew.jpg","congruent","n",595.323586,"f","f","left","(148, 362)",330,1,620.564444579007,45.6373791228663,"3925.36",311,2,0,NA
"pilot_13",93,"right","SHINEd_horse.jpg","incongruent","n",622.214861,"f","f","left","(862, 362)",269,1,615.867744515221,40.9406790590802,"1934.73",248,2,0,NA
"pilot_13",94,"left","SHINEd_hyena.jpg","congruent","n",440.593507,"f","f","left","(148, 362)",422,1,434.541605235443,-140.385460220698,"801.2",30,4,1,1
"pilot_13",81,"right","SHINEd_koala.jpg","incongruent","n",562.832633,"f","f","left","(862, 362)",365,1,552.942939872553,-21.9841255835874,"732.53",36,4,1,1
"pilot_13",207,"left","SHINEd_ladybug.jpg","congruent","n",954.877167,"f","f","left","(148, 362)",238,1,982.184528620563,407.257463164422,"1302.13",154,3,0,1
"pilot_13",97,"left","SHINEd_lotusroot.jpg","congruent","n",552.299048,"j","f","left","(148, 362)",298,0,547.13279039611,-27.7942750600307,"2422.88",230,3,1,1
"pilot_13",170,"left","SHINEd_manatee.jpg","congruent","n",530.171285,"f","f","left","(148, 362)",342,1,546.555701972338,-28.3713634838027,"2033.7",81,4,1,1
"pilot_13",14,"right","SHINEd_mizuna.jpg","incongruent","n",653.884439,"f","f","left","(862, 362)",429,1,624.215359617659,49.2882941615185,"879.75",74,4,1,1
"pilot_13",110,"right","SHINEd_mosquito.jpg","incongruent","n",505.492885,"f","f","left","(862, 362)",393,1,504.164418759,-70.7626466971407,"2382.65",192,2,1,NA
"pilot_13",114,"left","SHINEd_mushroom_other.jpg","congruent","n",520.705916,"f","f","left","(148, 362)",426,1,520.558308639889,-54.3687568162515,"1068.74",32,4,1,1
"pilot_13",18,"right","SHINEd_okapi.jpg","incongruent","n",498.32451,"f","f","left","(862, 362)",425,1,469.836289498548,-105.090775957592,"1409.79",25,2,0,NA
"pilot_13",65,"right","SHINEd_orchid.jpg","incongruent","n",536.351638,"f","f","left","(862, 362)",261,1,521.738509348996,-53.1885561071443,"751.11",10,4,1,1
"pilot_13",204,"left","SHINEd_peacockfeather.jpg","congruent","n",616.911108,"f","f","left","(148, 362)",382,1,643.332825459896,68.4057600037555,"6927.08",238,2,1,NA
"pilot_13",32,"right","SHINEd_pickle.jpg","incongruent","n",646.657442,"f","f","left","(862, 362)",373,1,622.30222758166,47.3751621255198,"1415.36",298,4,1,1
"pilot_13",95,"right","SHINEd_platypus.jpg","incongruent","n",500.314207,"f","f","left","(862, 362)",293,1,494.557519955665,-80.3695455004752,"1299.78",65,4,1,1
"pilot_13",87,"left","SHINEd_pomegrant.jpg","congruent","n",447.470348,"f","f","left","(148, 362)",354,1,439.351943193887,-135.575122262254,"1118.9",266,3,1,1
"pilot_13",224,"right","SHINEd_pumpkinseeds-.jpg","incongruent","n",512.177562,"f","f","left","(862, 362)",237,1,544.503573864342,-30.4234915917986,"1056.57",92,4,1,1
"pilot_13",84,"left","SHINEd_purple_yam.jpg","congruent","n",566.725239,"f","f","left","(148, 362)",442,1,557.72119003322,-17.2058754229205,"919.28",44,4,1,1
"pilot_13",132,"left","SHINEd_rabbitt.jpg","congruent","n",630.658863,"j","f","left","(148, 362)",350,0,635.82512060389,60.8980551477499,"674.26",41,4,1,1
"pilot_13",30,"left","SHINEd_raccoon.jpg","congruent","n",592.257338,"f","f","left","(148, 362)",262,1,567.311694141216,-7.61537131492473,"1383.63",91,3,1,1
"pilot_13",144,"left","SHINEd_red_Cabbage.jpg","congruent","n",656.176957,"f","f","left","(148, 362)",230,1,664.885791246558,89.9587257904175,"2063.36",437,3,0,1
"pilot_13",136,"right","SHINEd_red_panda.jpg","incongruent","n",500.683061,"f","f","left","(862, 362)",273,1,507.030177484779,-67.8968879713609,"1349.91",269,2,1,NA
"pilot_13",216,"right","SHINEd_rhino horn.jpg","incongruent","n",459.158106,"f","f","left","(862, 362)",249,1,489.122400102563,-85.804665353577,"1100.95",324,4,1,1
"pilot_13",149,"left","SHINEd_rose.jpg","congruent","n",387.577239,"j","f","left","(148, 362)",430,0,397.762146847669,-177.164918608471,"781.44",40,4,1,1
"pilot_13",127,"left","SHINEd_scallion.jpg","congruent","n",578.924708,"f","f","left","(148, 362)",314,1,582.614892002779,7.68782654663838,"696.16",68,4,1,1
"pilot_13",69,"left","SHINEd_skeleton-lizard.jpg","congruent","n",502.784834,"f","f","left","(148, 362)",250,1,489.352564229885,-85.5745012262551,"918.56",371,1,0,NA
"pilot_13",129,"left","SHINEd_skunk.jpg","congruent","n",483.291459,"f","f","left","(148, 362)",290,1,487.572072443223,-87.354993012917,"1197.57",377,3,0,1
"pilot_13",90,"right","SHINEd_soil.jpg","incongruent","n",834.745823,"f","f","left","(862, 362)",289,1,827.513062354554,252.585996898413,"1278.51",274,4,1,1
"pilot_13",221,"left","SHINEd_spinach.jpg","congruent","n",372.48211,"f","f","left","(148, 362)",266,1,403.922477703675,-171.004587752465,"3112.36",240,1,0,NA
"pilot_13",67,"right","SHINEd_starfruit.jpg","incongruent","n",536.675714,"f","f","left","(862, 362)",317,1,522.653014789441,-52.2740506666997,"2871",2,4,1,1
"pilot_13",39,"left","SHINEd_treestump.jpg","congruent","n",794.826353,"f","f","left","(148, 362)",414,1,772.537641623216,197.610576167076,"1852.21",138,3,1,1
"pilot_13",158,"right","SHINEd_vanillabean copy.jpg","incongruent","n",555.932767,"f","f","left","(862, 362)",329,1,568.77460732967,-6.15245812647032,"1695.38",413,3,0,1
"pilot_13",198,"left","SHINEd_volcano copy.jpg","congruent","n",605.989446,"f","f","left","(148, 362)",234,1,630.639875138562,55.7128096824217,"256.02",38,4,1,1
"pilot_13",103,"right","SHINEd_whale.jpg","incongruent","n",814.37502,"f","f","left","(862, 362)",421,1,810.980050717443,236.052985261303,"2023.54",197,2,0,NA
"pilot_13",156,"left","SHINEd_wheat_stock.jpg","congruent","n",612.897915,"f","f","left","(148, 362)",358,1,625.149325889225,50.2222604330851,"5410.39",263,2,0,NA
"pilot_13",63,"right","SHINEd_white_strawberries.jpg","incongruent","n",664.99918,"f","f","left","(862, 362)",417,1,649.795621908552,74.8685564524112,"973.82",58,4,1,1
"pilot_13",143,"right","SHINEd_worm.jpg","incongruent","n",630.152528,"f","f","left","(862, 362)",389,1,638.566147526335,63.6390820701951,"999.66",445,1,0,NA
