"participant","trial_index","screenposition","stimulus","trialtype","classifyenc","rt","response","responsecorrect","responsecorrect_side","screenlocation","stimnum","acc","rtResidual","rtResidualC","rt_rec","trialno_rec","ratingConfidence","acc_rec","memoryHits.hc"
"pilot3_5",3,"right","SHINEd_Bag_Camera.jpg","congruent","m",578.114004,"j","j","right","(862, 362)",216,1,542.813580185177,-21.0564079551743,NA,NA,NA,NA,NA
"pilot3_5",73,"right","SHINEd_Ball_Football.jpg","congruent","m",545.087821,"j","j","right","(862, 362)",128,1,531.949098234841,-31.9208899055094,NA,NA,NA,NA,NA
"pilot3_5",130,"right","SHINEd_Banana.jpg","incongruent","n",711.596343,"f","f","left","(862, 362)",376,1,716.503576803854,152.633588663504,NA,NA,NA,NA,NA
"pilot3_5",1,"left","SHINEd_Bandage_Adhesive.jpg","incongruent","m",922.233954,"j","j","right","(148, 362)",107,1,886.300338726608,322.430350586258,NA,NA,NA,NA,NA
"pilot3_5",224,"left","SHINEd_Barbecue_Gas.jpg","incongruent","m",486.602329,"j","j","right","(148, 362)",159,1,521.269561356262,-42.6004267840892,NA,NA,NA,NA,NA
"pilot3_5",26,"left","SHINEd_Basket_Plastic.jpg","incongruent","m",509.334882,"j","j","right","(148, 362)",211,1,481.316159958638,-82.553828181713,NA,NA,NA,NA,NA
"pilot3_5",135,"left","SHINEd_Bat_Baseball.jpg","incongruent","m",441.589372,"j","j","right","(148, 362)",127,1,448.079584450259,-115.790403690092,NA,NA,NA,NA,NA
"pilot3_5",215,"left","SHINEd_Bed_Hospital.jpg","incongruent","m",550.023459,"j","j","right","(148, 362)",207,1,581.841329792733,17.9713416523824,NA,NA,NA,NA,NA
"pilot3_5",101,"left","SHINEd_Belt.jpg","incongruent","m",432.978612,"j","j","right","(148, 362)",195,1,428.704569654707,-135.165418485643,NA,NA,NA,NA,NA
"pilot3_5",89,"right","SHINEd_Bib.jpg","congruent","m",586.273547,"j","j","right","(862, 362)",136,1,578.200355903336,14.3303677629855,NA,NA,NA,NA,NA
"pilot3_5",24,"left","SHINEd_Binoculars.jpg","incongruent","m",557.223584,"j","j","right","(148, 362)",199,1,528.571670500076,-35.2983176402749,NA,NA,NA,NA,NA
"pilot3_5",177,"right","SHINEd_Bird_CanadianGoose.jpg","incongruent","n",392.500296,"f","f","left","(862, 362)",388,1,412.287529080058,-151.582459060293,NA,NA,NA,NA,NA
"pilot3_5",211,"right","SHINEd_Blackboard.jpg","congruent","m",688.411557,"j","j","right","(862, 362)",72,1,718.96304487561,155.093056735259,NA,NA,NA,NA,NA
"pilot3_5",61,"right","SHINEd_Boar.jpg","incongruent","n",477.358992,"f","f","left","(862, 362)",264,1,460.42112048347,-103.44886765688,NA,NA,NA,NA,NA
"pilot3_5",223,"right","SHINEd_Bolt.jpg","congruent","m",482.833132,"j","j","right","(862, 362)",32,1,517.183768626981,-46.6862195133702,NA,NA,NA,NA,NA
"pilot3_5",54,"right","SHINEd_BookShelf.jpg","congruent","m",609.643786,"j","j","right","(862, 362)",204,1,590.489744378504,26.619756238153,NA,NA,NA,NA,NA
"pilot3_5",13,"right","SHINEd_Boombox.jpg","congruent","m",579.933824,"j","j","right","(862, 362)",92,1,547.799357477986,-16.0706306623651,NA,NA,NA,NA,NA
"pilot3_5",94,"right","SHINEd_Boots_KneeHigh.jpg","congruent","m",917.308072,"j","j","right","(862, 362)",152,1,910.817859549741,346.94787140939,NA,NA,NA,NA,NA
"pilot3_5",109,"right","SHINEd_Bottle_Bleach.jpg","congruent","m",589.717304,"j","j","right","(862, 362)",212,1,587.976027488955,24.1060393486041,NA,NA,NA,NA,NA
"pilot3_5",188,"left","SHINEd_Bowtie.jpg","incongruent","m",567.354723,"j","j","right","(148, 362)",191,1,590.624509102148,26.7545209617974,NA,NA,NA,NA,NA
"pilot3_5",157,"left","SHINEd_Box_GiftTopView.jpg","incongruent","m",625.616956,"j","j","right","(148, 362)",219,1,639.072274494439,75.2022863540886,NA,NA,NA,NA,NA
"pilot3_5",144,"right","SHINEd_Box_Package.jpg","congruent","m",417.399182,"j","j","right","(862, 362)",220,1,426.738756013787,-137.131232126564,NA,NA,NA,NA,NA
"pilot3_5",32,"left","SHINEd_Box_Staples.jpg","incongruent","m",706.172357,"j","j","right","(148, 362)",67,1,680.053209334323,116.183221193973,NA,NA,NA,NA,NA
"pilot3_5",139,"right","SHINEd_Buffalo.jpg","incongruent","n",511.536967,"f","f","left","(862, 362)",432,1,519.293562367383,-44.5764257729681,NA,NA,NA,NA,NA
"pilot3_5",17,"right","SHINEd_Bus_DoubleDecker.jpg","congruent","m",620.316688,"j","j","right","(862, 362)",184,1,589.44860439511,25.5786162547586,NA,NA,NA,NA,NA
"pilot3_5",146,"left","SHINEd_Bus_School.jpg","incongruent","m",488.543477,"j","j","right","(148, 362)",171,1,498.516242472349,-65.3537456680016,NA,NA,NA,NA,NA
"pilot3_5",131,"right","SHINEd_Button.jpg","congruent","m",531.11804,"j","j","right","(862, 362)",4,1,536.341869533135,-27.5281186072156,NA,NA,NA,NA,NA
"pilot3_5",112,"left","SHINEd_CDstack.jpg","incongruent","m",534.980355,"j","j","right","(148, 362)",15,1,534.188865676798,-29.6811224635531,NA,NA,NA,NA,NA
"pilot3_5",12,"left","SHINEd_Cable_AudioSplitter.jpg","incongruent","m",636.624752,"j","j","right","(148, 362)",91,1,604.173689748705,40.303701608354,NA,NA,NA,NA,NA
"pilot3_5",216,"left","SHINEd_Cage_Bird.jpg","incongruent","m",561.544064,"j","j","right","(148, 362)",123,1,593.678530522014,29.8085423816634,NA,NA,NA,NA,NA
"pilot3_5",117,"right","SHINEd_Camel_Bactrian.jpg","incongruent","n",457.481026,"f","f","left","(862, 362)",344,1,458.272515323202,-105.597472817149,NA,NA,NA,NA,NA
"pilot3_5",99,"right","SHINEd_CanOpener.jpg","congruent","m",511.858125,"j","j","right","(862, 362)",160,1,506.950891196146,-56.9190969442053,NA,NA,NA,NA,NA
"pilot3_5",74,"left","SHINEd_Candleholder_LampShaped.jpg","incongruent","m",629.607212,"j","j","right","(148, 362)",111,1,616.785084964122,52.9150968237715,NA,NA,NA,NA,NA
"pilot3_5",38,"left","SHINEd_CapGraduation.jpg","incongruent","m",704.274945,"j","j","right","(148, 362)",187,1,680.055371710009,116.185383569658,NA,NA,NA,NA,NA
"pilot3_5",16,"left","SHINEd_Car_Sedan.jpg","incongruent","m",712.455991,"j","j","right","(148, 362)",183,1,681.271311665829,117.401323525478,NA,NA,NA,NA,NA
"pilot3_5",25,"right","SHINEd_Card_TwoSpade.jpg","congruent","m",633.199468,"j","j","right","(862, 362)",88,1,604.864150229357,40.9941620890061,NA,NA,NA,NA,NA
"pilot3_5",149,"left","SHINEd_Caribou.jpg","congruent","n",405.240036,"f","f","left","(148, 362)",435,1,416.162588660192,-147.707399480159,NA,NA,NA,NA,NA
"pilot3_5",80,"right","SHINEd_Cassette_Audio.jpg","congruent","m",449.316994,"j","j","right","(862, 362)",148,1,438.394441339808,-125.475546800543,NA,NA,NA,NA,NA
"pilot3_5",2,"left","SHINEd_Cauliflower.jpg","congruent","n",630.159967,"f","f","left","(148, 362)",291,1,594.542947455895,30.6729593155445,NA,NA,NA,NA,NA
"pilot3_5",209,"right","SHINEd_Celery.jpg","incongruent","n",514.108453,"f","f","left","(862, 362)",272,1,544.026749417048,-19.8432387233031,NA,NA,NA,NA,NA
"pilot3_5",114,"left","SHINEd_Chimpanzee.jpg","congruent","n",598.530907,"f","f","left","(148, 362)",255,1,598.37260913536,34.5026209950086,NA,NA,NA,NA,NA
"pilot3_5",27,"right","SHINEd_CinderBlock.jpg","congruent","m",825.734565,"j","j","right","(862, 362)",108,1,798.032438687919,234.162450547568,NA,NA,NA,NA,NA
"pilot3_5",166,"right","SHINEd_Clam.jpg","incongruent","n",592.638284,"f","f","left","(862, 362)",340,1,608.942964057968,45.0729759176169,NA,NA,NA,NA,NA
"pilot3_5",116,"right","SHINEd_Clothespin_Red.jpg","congruent","m",437.936401,"j","j","right","(862, 362)",60,1,438.411294593921,-125.458693546429,NA,NA,NA,NA,NA
"pilot3_5",202,"right","SHINEd_CoffeeBeans.jpg","incongruent","n",536.180592,"f","f","left","(862, 362)",332,1,563.882718312081,0.0127301717304071,NA,NA,NA,NA,NA
"pilot3_5",35,"right","SHINEd_Cologne.jpg","congruent","m",524.711162,"j","j","right","(862, 362)",116,1,499.541801522166,-64.3281866181847,NA,NA,NA,NA,NA
"pilot3_5",187,"right","SHINEd_CompassCardinal.jpg","congruent","m",475.855007,"j","j","right","(862, 362)",40,1,498.808197372867,-65.0617907674836,NA,NA,NA,NA,NA
"pilot3_5",210,"left","SHINEd_Coral.jpg","congruent","n",675.775315,"f","f","left","(148, 362)",455,1,706.010207146329,142.140219005978,NA,NA,NA,NA,NA
"pilot3_5",79,"right","SHINEd_Cougar.jpg","incongruent","n",493.809254,"f","f","left","(862, 362)",276,1,482.570105610527,-81.2998825298238,NA,NA,NA,NA,NA
"pilot3_5",128,"right","SHINEd_Cow.jpg","incongruent","n",486.649822,"f","f","left","(862, 362)",320,1,490.923864345293,-72.9461237950583,NA,NA,NA,NA,NA
"pilot3_5",191,"left","SHINEd_Crab.jpg","congruent","n",545.6993,"f","f","left","(148, 362)",259,1,569.918873289991,6.04888514964014,NA,NA,NA,NA,NA
"pilot3_5",212,"left","SHINEd_Crayon_Green.jpg","incongruent","m",819.116022,"j","j","right","(148, 362)",63,1,849.984105604891,286.11411746454,NA,NA,NA,NA,NA
"pilot3_5",182,"right","SHINEd_Cucumber.jpg","incongruent","n",626.127833,"f","f","left","(862, 362)",364,1,647.498044726463,83.6280565861118,NA,NA,NA,NA,NA
"pilot3_5",44,"left","SHINEd_Cup_Bathroom.jpg","incongruent","m",0,".","j","right","(148, 362)",51,0,-22.3199989143054,-586.189987054656,NA,NA,NA,NA,NA
"pilot3_5",69,"right","SHINEd_Dart.jpg","congruent","m",619.197673,"j","j","right","(862, 362)",20,1,604.792567317718,40.9225791773669,NA,NA,NA,NA,NA
"pilot3_5",77,"right","SHINEd_Dill.jpg","incongruent","n",462.465229,"f","f","left","(862, 362)",256,1,450.592889151965,-113.277098988386,NA,NA,NA,NA,NA
"pilot3_5",46,"right","SHINEd_DoubleBass.jpg","congruent","m",612.963521,"j","j","right","(862, 362)",8,1,591.276713544256,27.4067254039056,NA,NA,NA,NA,NA
"pilot3_5",170,"right","SHINEd_DrainPlug.jpg","congruent","m",486.668664,"j","j","right","(862, 362)",140,1,504.239726975092,-59.6302611652594,NA,NA,NA,NA,NA
"pilot3_5",19,"left","SHINEd_Dress_Blue.jpg","incongruent","m",555.545027,"j","j","right","(148, 362)",3,1,525.310134853671,-38.5598532866795,NA,NA,NA,NA,NA
"pilot3_5",21,"left","SHINEd_Dresser.jpg","incongruent","m",658.380018,"j","j","right","(148, 362)",203,1,628.778317312233,64.9083291718823,NA,NA,NA,NA,NA
"pilot3_5",143,"left","SHINEd_DryRack_Dishes.jpg","incongruent","m",588.318631,"j","j","right","(148, 362)",135,1,597.341609284506,33.4716211441556,NA,NA,NA,NA,NA
"pilot3_5",137,"right","SHINEd_Earrings_Dangling.jpg","congruent","m",512.548589,"f","j","right","(862, 362)",196,0,519.671992908821,-44.19799523153,NA,NA,NA,NA,NA
"pilot3_5",222,"left","SHINEd_Eggplant.jpg","congruent","n",478.810344,"f","f","left","(148, 362)",267,1,512.8443848977,-51.0256032426511,NA,NA,NA,NA,NA
"pilot3_5",197,"right","SHINEd_EspressoMachine.jpg","congruent","m",455.634672,"j","j","right","(862, 362)",156,1,481.753819665677,-82.1161684746743,NA,NA,NA,NA,NA
"pilot3_5",127,"right","SHINEd_Exercise_Bike.jpg","congruent","m",547.297558,"j","j","right","(862, 362)",24,1,551.255004616012,-12.6149835243393,NA,NA,NA,NA,NA
"pilot3_5",20,"right","SHINEd_Fan_Ceiling.jpg","congruent","m",855.421173,"j","j","right","(862, 362)",48,1,825.502876582952,261.632888442601,NA,NA,NA,NA,NA
"pilot3_5",81,"left","SHINEd_Fence_Wooden.jpg","incongruent","m",509.203422,"j","j","right","(148, 362)",163,1,498.597465069089,-65.272523071262,NA,NA,NA,NA,NA
"pilot3_5",87,"left","SHINEd_Ferret.jpg","congruent","n",515.060815,"f","f","left","(148, 362)",239,1,506.354432444775,-57.5155556955763,NA,NA,NA,NA,NA
"pilot3_5",132,"right","SHINEd_FireExtinguisher.jpg","congruent","m",478.3257,"j","j","right","(862, 362)",112,1,483.866125262416,-80.0038628779346,NA,NA,NA,NA,NA
"pilot3_5",100,"left","SHINEd_FireHydrant.jpg","incongruent","m",476.981195,"j","j","right","(148, 362)",167,1,472.390556925427,-91.4794312149243,NA,NA,NA,NA,NA
"pilot3_5",173,"left","SHINEd_Fish_Swordfish.jpg","congruent","n",505.912147,"f","f","left","(148, 362)",331,1,524.432997162934,-39.4369909774165,NA,NA,NA,NA,NA
"pilot3_5",205,"left","SHINEd_FloppyDisk.jpg","incongruent","m",491.827522,"j","j","right","(148, 362)",147,1,520.479435499924,-43.3905526404269,NA,NA,NA,NA,NA
"pilot3_5",204,"left","SHINEd_Flower_Daisy.jpg","congruent","n",432.458959,"f","f","left","(148, 362)",351,1,460.794276770643,-103.075711369708,NA,NA,NA,NA,NA
"pilot3_5",138,"right","SHINEd_Fridge.jpg","congruent","m",668.111354,"j","j","right","(862, 362)",44,1,675.551353638102,111.681365497751,NA,NA,NA,NA,NA
"pilot3_5",169,"right","SHINEd_Garbage_GreenBin.jpg","congruent","m",579.054451,"j","j","right","(862, 362)",144,1,596.308918245811,32.4389301054597,NA,NA,NA,NA,NA
"pilot3_5",28,"right","SHINEd_GasStation.jpg","congruent","m",781.843309,"j","j","right","(862, 362)",168,1,754.4577784172,190.587790276849,NA,NA,NA,NA,NA
"pilot3_5",45,"right","SHINEd_Ginger.jpg","incongruent","n",600.425658,"f","f","left","(862, 362)",236,1,578.422254814976,14.5522666746246,NA,NA,NA,NA,NA
"pilot3_5",82,"right","SHINEd_Glasses_Reading.jpg","congruent","m",487.974293,"j","j","right","(862, 362)",200,1,477.68493179837,-86.185056341981,NA,NA,NA,NA,NA
"pilot3_5",49,"right","SHINEd_Golf_Club.jpg","congruent","m",583.051864,"j","j","right","(862, 362)",132,1,562.314843732099,-1.55514440825162,NA,NA,NA,NA,NA
"pilot3_5",84,"right","SHINEd_Guitar_Acoustic.jpg","congruent","m",497.486681,"j","j","right","(862, 362)",12,1,487.830511256932,-76.0394768834192,NA,NA,NA,NA,NA
"pilot3_5",37,"right","SHINEd_Hammer.jpg","congruent","m",549.193488,"j","j","right","(862, 362)",36,1,524.657318980728,-39.2126691596228,NA,NA,NA,NA,NA
"pilot3_5",140,"right","SHINEd_Hammock.jpg","congruent","m",547.52093,"j","j","right","(862, 362)",208,1,555.594121096664,-8.27586704368716,NA,NA,NA,NA,NA
"pilot3_5",56,"right","SHINEd_Hand.jpg","incongruent","n",601.983026,"f","f","left","(862, 362)",284,1,583.462175837066,19.5921876967148,NA,NA,NA,NA,NA
"pilot3_5",153,"left","SHINEd_Harp.jpg","incongruent","m",521.886519,"j","j","right","(148, 362)",11,1,534.075454577316,-29.7945335630351,NA,NA,NA,NA,NA
"pilot3_5",78,"right","SHINEd_Hat_Explorer.jpg","congruent","m",499.635877,"j","j","right","(862, 362)",188,1,488.080132881246,-75.7898552591047,NA,NA,NA,NA,NA
"pilot3_5",47,"right","SHINEd_Hazelnut.jpg","incongruent","n",479.456366,"f","f","left","(862, 362)",252,1,458.086154273537,-105.783833866813,NA,NA,NA,NA,NA
"pilot3_5",52,"right","SHINEd_HedgeShears.jpg","congruent","m",833.45255,"j","j","right","(862, 362)",28,1,813.665316919942,249.795328779591,NA,NA,NA,NA,NA
"pilot3_5",15,"left","SHINEd_Hedgehog.jpg","congruent","n",588.205887,"f","f","left","(148, 362)",243,1,556.704611936548,-7.16537620380324,NA,NA,NA,NA,NA
"pilot3_5",92,"left","SHINEd_Hippopotamus.jpg","congruent","n",429.586499,"f","f","left","(148, 362)",367,1,422.463095091179,-141.406893049172,NA,NA,NA,NA,NA
"pilot3_5",103,"right","SHINEd_HorseshoeCrab.jpg","incongruent","n",567.669733,"f","f","left","(862, 362)",260,1,564.028882113269,0.158893972918424,NA,NA,NA,NA,NA
"pilot3_5",66,"left","SHINEd_Iguana.jpg","congruent","n",496.051184,"f","f","left","(148, 362)",387,1,480.696291129875,-83.1736970104759,NA,NA,NA,NA,NA
"pilot3_5",221,"right","SHINEd_IroningBoard.jpg","congruent","m",555.158309,"j","j","right","(862, 362)",52,1,588.875754168419,25.005766028068,NA,NA,NA,NA,NA
"pilot3_5",91,"right","SHINEd_Kangaroo.jpg","incongruent","n",416.928723,"f","f","left","(862, 362)",312,1,409.488723361898,-154.381264778453,NA,NA,NA,NA,NA
"pilot3_5",121,"left","SHINEd_KeyHook_Empty.jpg","incongruent","m",423.451582,"j","j","right","(148, 362)",223,1,425.509454240326,-138.360533900025,NA,NA,NA,NA,NA
"pilot3_5",155,"right","SHINEd_Key_Car.jpg","congruent","m",465.552175,"j","j","right","(862, 362)",176,1,478.374302035878,-85.4956861044733,NA,NA,NA,NA,NA
"pilot3_5",186,"left","SHINEd_KiddiePool.jpg","incongruent","m",736.06651,"j","j","right","(148, 362)",87,1,758.703104643586,194.833116503235,NA,NA,NA,NA,NA
"pilot3_5",213,"left","SHINEd_KitchenCloth.jpg","incongruent","m",934.731226,"f","j","right","(148, 362)",143,0,965.915905334171,402.045917193821,NA,NA,NA,NA,NA
"pilot3_5",165,"right","SHINEd_Leaf_Green.jpg","incongruent","n",500.455576,"f","f","left","(862, 362)",448,1,516.443660328687,-47.426327811664,NA,NA,NA,NA,NA
"pilot3_5",199,"left","SHINEd_LetterMail.jpg","incongruent","m",534.793202,"j","j","right","(148, 362)",75,1,561.545541124238,-2.32444701611247,NA,NA,NA,NA,NA
"pilot3_5",70,"right","SHINEd_Lettuce_GreenLeaf.jpg","incongruent","n",629.868586,"f","f","left","(862, 362)",248,1,615.780076046999,51.9100879066479,NA,NA,NA,NA,NA
"pilot3_5",194,"right","SHINEd_LifeJacket_BlueYellow.jpg","congruent","m",564.042772,"j","j","right","(862, 362)",16,1,589.212132477834,25.3421443374829,NA,NA,NA,NA,NA
"pilot3_5",53,"left","SHINEd_LightBulb_White.jpg","incongruent","m",605.745256,"j","j","right","(148, 362)",47,1,586.274618649223,22.4046305088721,NA,NA,NA,NA,NA
"pilot3_5",172,"left","SHINEd_Light_Siren.jpg","incongruent","m",535.348245,"j","j","right","(148, 362)",95,1,553.552499433653,-10.3174887066975,NA,NA,NA,NA,NA
"pilot3_5",97,"right","SHINEd_Light_Traffic.jpg","congruent","m",528.93995,"j","j","right","(862, 362)",180,1,523.399524737584,-40.4704634027671,NA,NA,NA,NA,NA
"pilot3_5",64,"right","SHINEd_Lighter_Yellow.jpg","congruent","m",506.684778,"j","j","right","(862, 362)",104,1,490.696693671313,-73.1732944690377,NA,NA,NA,NA,NA
"pilot3_5",174,"right","SHINEd_Lion.jpg","incongruent","n",508.573564,"f","f","left","(862, 362)",316,1,527.411009892215,-36.4589782481357,NA,NA,NA,NA,NA
"pilot3_5",50,"right","SHINEd_Lobster.jpg","incongruent","n",570.475852,"f","f","left","(862, 362)",288,1,550.05542746138,-13.8145606789707,NA,NA,NA,NA,NA
"pilot3_5",86,"right","SHINEd_Lock_Combination.jpg","congruent","m",568.736108,"j","j","right","(862, 362)",64,1,559.713129715494,-4.15685842485736,NA,NA,NA,NA,NA
"pilot3_5",65,"left","SHINEd_MalletJudge.jpg","incongruent","m",572.617249,"j","j","right","(148, 362)",35,1,556.945760400594,-6.92422773975678,NA,NA,NA,NA,NA
"pilot3_5",218,"left","SHINEd_MannequinBust.jpg","incongruent","m",504.220456,"j","j","right","(148, 362)",103,1,536.988113980576,-26.8818741597748,NA,NA,NA,NA,NA
"pilot3_5",93,"left","SHINEd_Microwave.jpg","incongruent","m",535.618027,"j","j","right","(148, 362)",155,1,528.81121882046,-35.0587693198908,NA,NA,NA,NA,NA
"pilot3_5",145,"left","SHINEd_MousepadAndMouse.jpg","incongruent","m",684.859159,"j","j","right","(148, 362)",99,1,694.515328743068,130.645340602717,NA,NA,NA,NA,NA
"pilot3_5",163,"left","SHINEd_Notepad.jpg","incongruent","m",558.315586,"j","j","right","(148, 362)",71,1,573.670478870125,9.80049072977422,NA,NA,NA,NA,NA
"pilot3_5",160,"left","SHINEd_Nuts_Peanuts.jpg","congruent","n",490.763461,"f","f","left","(148, 362)",235,1,505.168566682282,-58.7014214580686,NA,NA,NA,NA,NA
"pilot3_5",158,"left","SHINEd_Oars.jpg","incongruent","m",452.72316,"j","j","right","(148, 362)",19,1,466.49507422372,-97.3749139166305,NA,NA,NA,NA,NA
"pilot3_5",167,"left","SHINEd_Olives.jpg","congruent","n",412.7466,"f","f","left","(148, 362)",419,1,429.367875787249,-134.502112353102,NA,NA,NA,NA,NA
"pilot3_5",30,"right","SHINEd_Oneholepunch.jpg","congruent","m",717.359748,"j","j","right","(862, 362)",76,1,690.607408875762,126.737420735411,NA,NA,NA,NA,NA
"pilot3_5",175,"left","SHINEd_OnionRed.jpg","congruent","n",385.233295,"f","f","left","(148, 362)",383,1,404.387336621496,-159.482651518855,NA,NA,NA,NA,NA
"pilot3_5",141,"left","SHINEd_Organ.jpg","incongruent","m",502.366386,"j","j","right","(148, 362)",7,1,510.756172825945,-53.1138153144063,NA,NA,NA,NA,NA
"pilot3_5",111,"right","SHINEd_Outhouse.jpg","congruent","m",411.809403,"j","j","right","(862, 362)",164,1,410.701317947517,-153.168670192834,NA,NA,NA,NA,NA
"pilot3_5",207,"left","SHINEd_Owl.jpg","congruent","n",513.208633,"f","f","left","(148, 362)",407,1,542.493737958486,-21.376250181865,NA,NA,NA,NA,NA
"pilot3_5",33,"left","SHINEd_Panda.jpg","congruent","n",526.029139,"f","f","left","(148, 362)",251,1,500.226587063604,-63.6434010767465,NA,NA,NA,NA,NA
"pilot3_5",8,"left","SHINEd_PaperCutter.jpg","incongruent","m",726.15334,"j","j","right","(148, 362)",31,1,692.435894831581,128.56590669123,NA,NA,NA,NA,NA
"pilot3_5",208,"right","SHINEd_PassionFruit.jpg","incongruent","n",590.593647,"f","f","left","(862, 362)",452,1,620.195347687767,56.325359547416,NA,NA,NA,NA,NA
"pilot3_5",134,"left","SHINEd_Peach.jpg","congruent","n",459.543346,"f","f","left","(148, 362)",323,1,465.716962720978,-98.1530254193728,NA,NA,NA,NA,NA
"pilot3_5",106,"right","SHINEd_Pear_Yellow.jpg","incongruent","n",569.693256,"f","f","left","(862, 362)",416,1,567.002192301112,3.13220416076128,NA,NA,NA,NA,NA
"pilot3_5",214,"right","SHINEd_PencilCase.jpg","congruent","m",817.933489,"j","j","right","(862, 362)",68,1,849.434764063452,285.564775923101,NA,NA,NA,NA,NA
"pilot3_5",184,"right","SHINEd_Pepper_Chili.jpg","incongruent","n",512.404862,"f","f","left","(862, 362)",240,1,534.408265185024,-29.4617229553264,NA,NA,NA,NA,NA
"pilot3_5",42,"right","SHINEd_Pepper_Green.jpg","incongruent","n",470.542341,"f","f","left","(862, 362)",372,1,447.589150627133,-116.280837513218,NA,NA,NA,NA,NA
"pilot3_5",83,"right","SHINEd_Pig.jpg","incongruent","n",444.662647,"f","f","left","(862, 362)",424,1,434.689881527651,-129.1801066127,NA,NA,NA,NA,NA
"pilot3_5",129,"right","SHINEd_Pitcher.jpg","congruent","m",497.535767,"j","j","right","(862, 362)",56,1,502.126405074573,-61.7435830657774,NA,NA,NA,NA,NA
"pilot3_5",14,"left","SHINEd_Playard.jpg","incongruent","m",704.1261,"j","j","right","(148, 362)",59,1,672.308229207267,108.438241066916,NA,NA,NA,NA,NA
"pilot3_5",206,"right","SHINEd_Plum.jpg","incongruent","n",534.536923,"f","f","left","(862, 362)",244,1,563.505432229205,-0.364555911145924,NA,NA,NA,NA,NA
"pilot3_5",39,"left","SHINEd_Potato.jpg","congruent","n",572.07406,"f","f","left","(148, 362)",423,1,548.17108243929,-15.6989057010609,NA,NA,NA,NA,NA
"pilot3_5",154,"left","SHINEd_Puffin.jpg","congruent","n",575.311556,"f","f","left","(148, 362)",231,1,587.817087306597,23.9470991662458,NA,NA,NA,NA,NA
"pilot3_5",88,"left","SHINEd_Razor.jpg","incongruent","m",607.924553,"j","j","right","(148, 362)",119,1,599.534766174055,35.6647780337045,NA,NA,NA,NA,NA
"pilot3_5",105,"right","SHINEd_RibbonSpool.jpg","congruent","m",438.591313,"j","j","right","(862, 362)",80,1,435.583653571831,-128.28633456852,NA,NA,NA,NA,NA
"pilot3_5",107,"left","SHINEd_Sand.jpg","congruent","n",894.334798,"j","f","left","(148, 362)",279,0,891.960330030393,328.090341890042,NA,NA,NA,NA,NA
"pilot3_5",57,"right","SHINEd_ScannerShoplifting.jpg","congruent","m",740.066809,"j","j","right","(862, 362)",100,1,721.862554566347,157.992566425996,NA,NA,NA,NA,NA
"pilot3_5",95,"right","SHINEd_Scorpion.jpg","incongruent","n",498.08074,"f","f","left","(862, 362)",396,1,491.907123279022,-71.962864861329,NA,NA,NA,NA,NA
"pilot3_5",226,"left","SHINEd_Seahorse.jpg","congruent","n",566.141113,"f","f","left","(148, 362)",347,1,601.441536814824,37.5715486744727,NA,NA,NA,NA,NA
"pilot3_5",62,"left","SHINEd_Seal_animal.jpg","congruent","n",520.078553,"f","f","left","(148, 362)",379,1,503.457277212751,-60.4127109275995,NA,NA,NA,NA,NA
"pilot3_5",122,"left","SHINEd_Seashell_RoseMurex.jpg","congruent","n",435.618903,"f","f","left","(148, 362)",327,1,437.993370969607,-125.876617170744,NA,NA,NA,NA,NA
"pilot3_5",185,"right","SHINEd_Shampoo.jpg","congruent","m",563.041975,"j","j","right","(862, 362)",120,1,585.361973914305,21.4919857739546,NA,NA,NA,NA,NA
"pilot3_5",51,"left","SHINEd_Shark_GreatWhite.jpg","congruent","n",549.874737,"f","f","left","(148, 362)",287,1,529.770908190661,-34.0990799496898,NA,NA,NA,NA,NA
"pilot3_5",68,"right","SHINEd_Sheep.jpg","incongruent","n",432.181536,"f","f","left","(862, 362)",300,1,417.459834588437,-146.410153551914,NA,NA,NA,NA,NA
"pilot3_5",133,"left","SHINEd_Ship_Model.jpg","incongruent","m",609.594607,"j","j","right","(148, 362)",83,1,615.451627991697,51.5816398513463,NA,NA,NA,NA,NA
"pilot3_5",29,"left","SHINEd_Shoes_Pumps.jpg","incongruent","m",888.694633,"j","j","right","(148, 362)",151,1,861.625698146481,297.75571000613,NA,NA,NA,NA,NA
"pilot3_5",147,"right","SHINEd_SnowGlobe.jpg","congruent","m",494.048496,"j","j","right","(862, 362)",84,1,504.33785720163,-59.5321309387207,NA,NA,NA,NA,NA
"pilot3_5",10,"left","SHINEd_Snowboard.jpg","incongruent","m",661.210691,"j","j","right","(148, 362)",23,1,628.126437290143,64.2564491497921,NA,NA,NA,NA,NA
"pilot3_5",55,"right","SHINEd_SpiderWeb.jpg","incongruent","n",702.175404,"f","f","left","(862, 362)",348,1,683.337958107785,119.467969967434,NA,NA,NA,NA,NA
"pilot3_5",178,"right","SHINEd_SpinningWheel.jpg","congruent","m",605.763785,"j","j","right","(862, 362)",124,1,625.867613809339,61.9976256689881,NA,NA,NA,NA,NA
"pilot3_5",4,"left","SHINEd_SpongeScrubbing.jpg","incongruent","m",653.606155,"j","j","right","(148, 362)",139,1,618.622326914457,54.7523387741065,NA,NA,NA,NA,NA
"pilot3_5",168,"right","SHINEd_Squash_Butternut.jpg","incongruent","n",408.290171,"f","f","left","(862, 362)",444,1,425.22804251653,-138.641945623821,NA,NA,NA,NA,NA
"pilot3_5",85,"right","SHINEd_Squid_Pink.jpg","incongruent","n",580.429117,"f","f","left","(862, 362)",336,1,571.089542986213,7.21955484586178,NA,NA,NA,NA,NA
"pilot3_5",195,"left","SHINEd_Staircase_Curving.jpg","incongruent","m",656.227899,"j","j","right","(148, 362)",115,1,681.713855207115,117.843867066764,NA,NA,NA,NA,NA
"pilot3_5",98,"left","SHINEd_Stapler_Regular.jpg","incongruent","m",588.308954,"j","j","right","(148, 362)",43,1,583.085124466865,19.2151363265138,NA,NA,NA,NA,NA
"pilot3_5",75,"left","SHINEd_Stingray.jpg","congruent","n",823.531398,"f","f","left","(148, 362)",315,1,811.025866693403,247.155878553052,NA,NA,NA,NA,NA
"pilot3_5",219,"left","SHINEd_Stroller.jpg","incongruent","m",531.92175,"j","j","right","(148, 362)",55,1,565.006003709857,1.13601556950612,NA,NA,NA,NA,NA
"pilot3_5",118,"left","SHINEd_Swan.jpg","congruent","n",540.965496,"f","f","left","(148, 362)",443,1,542.073581052483,-21.7964070878676,NA,NA,NA,NA,NA
"pilot3_5",142,"right","SHINEd_Tape_Scotch.jpg","congruent","m",465.902281,"j","j","right","(862, 362)",228,1,474.608663555226,-89.2613245851253,NA,NA,NA,NA,NA
"pilot3_5",220,"right","SHINEd_Tie.jpg","congruent","m",672.069558,"j","j","right","(862, 362)",192,1,705.470407439138,141.600419298787,NA,NA,NA,NA,NA
"pilot3_5",67,"right","SHINEd_TigerWhite.jpg","incongruent","n",467.29412,"f","f","left","(862, 362)",440,1,452.255822859156,-111.614165281195,NA,NA,NA,NA,NA
"pilot3_5",63,"left","SHINEd_Toolbox_RedOpen.jpg","incongruent","m",669.226246,"j","j","right","(148, 362)",39,1,652.921565942032,89.0515778016813,NA,NA,NA,NA,NA
"pilot3_5",96,"left","SHINEd_Tractor_Orange.jpg","incongruent","m",476.655332,"j","j","right","(148, 362)",175,1,470.798311008303,-93.071677132048,NA,NA,NA,NA,NA
"pilot3_5",22,"left","SHINEd_WateringCan_PlasticDarkGreen.jpg","incongruent","m",573.749759,"j","j","right","(148, 362)",215,1,544.464654041514,-19.4053340988367,NA,NA,NA,NA,NA
"pilot3_5",76,"right","SHINEd_alarm.jpg","congruent","m",523.347829,"j","j","right","(862, 362)",96,1,511.158893422684,-52.7110947176665,NA,NA,NA,NA,NA
"pilot3_5",162,"left","SHINEd_alfalfa.jpg","congruent","n",513.491758,"f","f","left","(148, 362)",283,1,528.530055140844,-35.3399329995068,NA,NA,NA,NA,NA
"pilot3_5",120,"left","SHINEd_alligator.jpg","congruent","n",315.808798,"f","f","left","(148, 362)",355,1,317.550074511045,-246.319913629306,NA,NA,NA,NA,NA
"pilot3_5",196,"left","SHINEd_almond.jpg","congruent","n",682.696818,"f","f","left","(148, 362)",311,1,708.499369936396,144.629381796045,NA,NA,NA,NA,NA
"pilot3_5",113,"left","SHINEd_aloe.jpg","congruent","n",491.469806,"f","f","left","(148, 362)",299,1,490.994912406079,-72.8750757342722,NA,NA,NA,NA,NA
"pilot3_5",18,"right","SHINEd_alpaca_fo.jpg","incongruent","n",511.792632,"f","f","left","(862, 362)",400,1,481.24114412439,-82.6288440159604,NA,NA,NA,NA,NA
"pilot3_5",48,"right","SHINEd_ant.jpg","incongruent","n",699.220802,"j","f","left","(862, 362)",328,0,678.167186002818,114.297197862467,NA,NA,NA,NA,NA
"pilot3_5",179,"right","SHINEd_anteater.jpg","incongruent","n",510.030485,"f","f","left","(862, 362)",368,1,530.45090953862,-33.419078601731,NA,NA,NA,NA,NA
"pilot3_5",124,"left","SHINEd_ashtray.jpg","incongruent","m",442.925145,"j","j","right","(148, 362)",227,1,445.932804428169,-117.937183712182,NA,NA,NA,NA,NA
"pilot3_5",180,"left","SHINEd_bat.jpg","congruent","n",554.820402,"f","f","left","(148, 362)",403,1,575.557422267901,11.6874341275499,NA,NA,NA,NA,NA
"pilot3_5",11,"left","SHINEd_bear.jpg","congruent","n",553.976019,"f","f","left","(148, 362)",271,1,521.208361019424,-42.661627120927,NA,NA,NA,NA,NA
"pilot3_5",228,"right","SHINEd_bee.jpg","incongruent","n",515.748198,"f","f","left","(862, 362)",380,1,551.681813273385,-12.1881748669655,NA,NA,NA,NA,NA
"pilot3_5",60,"right","SHINEd_beetle.jpg","incongruent","n",591.583957,"f","f","left","(862, 362)",356,1,574.329489754189,10.4595016138386,NA,NA,NA,NA,NA
"pilot3_5",104,"left","SHINEd_beluga.jpg","congruent","n",514.09939,"f","f","left","(148, 362)",431,1,510.77513484255,-53.0948532978006,NA,NA,NA,NA,NA
"pilot3_5",192,"left","SHINEd_birdie.jpg","incongruent","m",508.805807,"j","j","right","(148, 362)",131,1,533.341976019272,-30.5280121210789,NA,NA,NA,NA,NA
"pilot3_5",6,"right","SHINEd_blackberry.jpg","incongruent","n",791.486397,"f","f","left","(862, 362)",280,1,757.135760373019,193.265772232668,NA,NA,NA,NA,NA
"pilot3_5",40,"right","SHINEd_blueberries.jpg","incongruent","n",511.218704,"f","f","left","(862, 362)",232,1,487.632322168571,-76.23766597178,NA,NA,NA,NA,NA
"pilot3_5",152,"right","SHINEd_bullrush.jpg","incongruent","n",599.080407,"f","f","left","(862, 362)",324,1,610.952746848035,47.082758707684,NA,NA,NA,NA,NA
"pilot3_5",225,"right","SHINEd_chick hatch.jpg","incongruent","n",657.522782,"f","f","left","(862, 362)",384,1,692.506610085543,128.636621945192,NA,NA,NA,NA,NA
"pilot3_5",59,"left","SHINEd_clementine.jpg","congruent","n",569.771925,"f","f","left","(148, 362)",359,1,552.200862024908,-11.6691261154424,NA,NA,NA,NA,NA
"pilot3_5",5,"left","SHINEd_dates_fresh.jpg","congruent","n",594.693963,"f","f","left","(148, 362)",319,1,560.026730643738,-3.84325749661243,NA,NA,NA,NA,NA
"pilot3_5",72,"right","SHINEd_dove.jpg","incongruent","n",510.660997,"f","f","left","(862, 362)",308,1,497.205678505561,-66.6643096347903,NA,NA,NA,NA,NA
"pilot3_5",23,"left","SHINEd_edamame.jpg","congruent","n",682.796994,"f","f","left","(148, 362)",303,1,653.828484770795,89.9584966304443,NA,NA,NA,NA,NA
"pilot3_5",58,"right","SHINEd_eggs.jpg","incongruent","n",606.25338,"f","f","left","(862, 362)",296,1,588.365721295628,24.4957331552767,NA,NA,NA,NA,NA
"pilot3_5",200,"left","SHINEd_elbow.jpg","congruent","n",889.538406,"f","f","left","(148, 362)",263,1,916.607340853519,352.737352713168,NA,NA,NA,NA,NA
"pilot3_5",159,"left","SHINEd_feather.jpg","congruent","n",455.544515,"f","f","left","(148, 362)",415,1,469.633024953001,-94.2369631873495,NA,NA,NA,NA,NA
"pilot3_5",126,"right","SHINEd_fig.jpg","incongruent","n",522.366028,"f","f","left","(862, 362)",412,1,526.006878886731,-37.8631092536202,NA,NA,NA,NA,NA
"pilot3_5",161,"left","SHINEd_firetruck.jpg","incongruent","m",479.405019,"j","j","right","(148, 362)",179,1,494.126720411563,-69.7432677287877,NA,NA,NA,NA,NA
"pilot3_5",148,"right","SHINEd_gazelle.jpg","incongruent","n",392.678625,"f","f","left","(862, 362)",268,1,403.284581930911,-160.58540620944,NA,NA,NA,NA,NA
"pilot3_5",176,"left","SHINEd_goldfish.jpg","congruent","n",349.345054,"f","f","left","(148, 362)",275,1,368.815691350777,-195.054296789574,NA,NA,NA,NA,NA
"pilot3_5",189,"right","SHINEd_groundhog.jpg","incongruent","n",521.063453,"f","f","left","(862, 362)",404,1,544.649834831429,-19.2201533089217,NA,NA,NA,NA,NA
"pilot3_5",115,"right","SHINEd_housefly.jpg","incongruent","n",481.85135,"f","f","left","(862, 362)",420,1,482.00964786464,-81.8603402757104,NA,NA,NA,NA,NA
"pilot3_5",183,"left","SHINEd_lime.jpg","congruent","n",629.680754,"f","f","left","(148, 362)",439,1,651.367561455744,87.4975733153927,NA,NA,NA,NA,NA
"pilot3_5",90,"right","SHINEd_lorises.jpg","incongruent","n",493.372998,"f","f","left","(862, 362)",428,1,485.616402632617,-78.2535855077336,NA,NA,NA,NA,NA
"pilot3_5",108,"right","SHINEd_maggotts.jpg","incongruent","n",489.222754,"f","f","left","(862, 362)",392,1,487.164881759674,-76.7051063806769,NA,NA,NA,NA,NA
"pilot3_5",125,"left","SHINEd_mapleleaf.jpg","congruent","n",493.62393,"f","f","left","(148, 362)",335,1,496.94818515745,-66.9218029829011,NA,NA,NA,NA,NA
"pilot3_5",193,"right","SHINEd_mint.jpg","incongruent","n",481.529815,"f","f","left","(862, 362)",360,1,506.382579748553,-57.487408391798,NA,NA,NA,NA,NA
"pilot3_5",150,"left","SHINEd_moth.jpg","congruent","n",552.289011,"f","f","left","(148, 362)",427,1,563.528159389473,-0.341828750877941,NA,NA,NA,NA,NA
"pilot3_5",7,"left","SHINEd_organutan.jpg","congruent","n",747.422109,"j","f","left","(148, 362)",343,0,713.3880681023,149.518079961949,NA,NA,NA,NA,NA
"pilot3_5",71,"right","SHINEd_ornament.jpg","congruent","m",730.979776,"j","j","right","(862, 362)",224,1,717.20786177628,153.337873635929,NA,NA,NA,NA,NA
"pilot3_5",227,"left","SHINEd_paddle ball.jpg","incongruent","m",521.595254,"j","j","right","(148, 362)",27,1,557.212273544104,-6.65771459624648,NA,NA,NA,NA,NA
"pilot3_5",110,"right","SHINEd_papaya.jpg","incongruent","n",529.517424,"f","f","left","(862, 362)",292,1,528.092743218236,-35.777244922115,NA,NA,NA,NA,NA
"pilot3_5",190,"left","SHINEd_penguin.jpg","congruent","n",716.79221,"f","f","left","(148, 362)",307,1,740.69518756071,176.825199420359,NA,NA,NA,NA,NA
"pilot3_5",198,"left","SHINEd_pine-cone-.jpg","congruent","n",506.967652,"f","f","left","(148, 362)",399,1,533.403395394958,-30.4665927453934,NA,NA,NA,NA,NA
"pilot3_5",41,"left","SHINEd_pistachios-.jpg","congruent","n",554.510046,"f","f","left","(148, 362)",411,1,531.240259897852,-32.6297282424991,NA,NA,NA,NA,NA
"pilot3_5",171,"left","SHINEd_puffer-fish.jpg","congruent","n",458.434667,"f","f","left","(148, 362)",339,1,476.322325704372,-87.5476624359784,NA,NA,NA,NA,NA
"pilot3_5",34,"right","SHINEd_raspberry.jpg","incongruent","n",601.22521,"f","f","left","(862, 362)",456,1,575.739253792885,11.8692656525344,NA,NA,NA,NA,NA
"pilot3_5",136,"right","SHINEd_rhino.jpg","incongruent","n",500.521019,"f","f","left","(862, 362)",352,1,507.32782717954,-56.5421609608109,NA,NA,NA,NA,NA
"pilot3_5",43,"left","SHINEd_sanddollar.jpg","congruent","n",690.150961,"j","f","left","(148, 362)",295,0,667.514366356414,103.644378216063,NA,NA,NA,NA,NA
"pilot3_5",201,"right","SHINEd_seatAirplane.jpg","congruent","m",645.340097,"j","j","right","(862, 362)",172,1,672.7256275828,108.855639442449,NA,NA,NA,NA,NA
"pilot3_5",123,"right","SHINEd_sloth.jpg","incongruent","n",598.386995,"f","f","left","(862, 362)",304,1,601.078058698888,37.208070558537,NA,NA,NA,NA,NA
"pilot3_5",181,"left","SHINEd_sunflowers.jpg","congruent","n",662.704604,"f","f","left","(148, 362)",395,1,683.758219997182,119.888231856831,NA,NA,NA,NA,NA
"pilot3_5",217,"left","SHINEd_tamarinds.jpg","congruent","n",581.729408,"f","f","left","(148, 362)",451,1,614.180470251295,50.3104821109443,NA,NA,NA,NA,NA
"pilot3_5",36,"right","SHINEd_tapir copy.jpg","incongruent","n",504.316487,"f","f","left","(862, 362)",408,1,479.463722251447,-84.4062658889037,NA,NA,NA,NA,NA
"pilot3_5",203,"left","SHINEd_tentacle.jpg","congruent","n",667.612132,"f","f","left","(148, 362)",247,1,695.630854041362,131.760865901011,NA,NA,NA,NA,NA
"pilot3_5",102,"left","SHINEd_tooth.jpg","congruent","n",467.607989,"f","f","left","(148, 362)",363,1,463.650542383988,-100.219445756362,NA,NA,NA,NA,NA
"pilot3_5",164,"left","SHINEd_tree.jpg","congruent","n",760.998081,"f","f","left","(148, 362)",375,1,776.669569599406,212.799581459055,NA,NA,NA,NA,NA
"pilot3_5",9,"left","SHINEd_turkey.jpg","congruent","n",491.105784,"f","f","left","(148, 362)",391,1,457.704934560862,-106.165053579489,NA,NA,NA,NA,NA
"pilot3_5",119,"right","SHINEd_vulture.jpg","incongruent","n",392.585496,"f","f","left","(862, 362)",436,1,394.010176781764,-169.859811358587,NA,NA,NA,NA,NA
"pilot3_5",31,"left","SHINEd_whistle.jpg","incongruent","m",679.751308,"j","j","right","(148, 362)",79,1,653.315564605042,89.4455764646916,NA,NA,NA,NA,NA
"pilot3_5",151,"left","SHINEd_white sesame.jpg","congruent","n",707.695866,"f","f","left","(148, 362)",371,1,719.251610118754,155.381621978403,NA,NA,NA,NA,NA
"pilot3_5",156,"left","SHINEd_zebra.jpg","congruent","n",413.407042,"f","f","left","(148, 362)",447,1,426.545764765159,-137.324223375192,NA,NA,NA,NA,NA
